t,accx,accy,accz,gyrox,gyroy,gyroz
381266,-0.000732422,-0.000732422,1.00098,0.0985563,-0.0954866,-0.189513
381296,-0.000488281,-0.000488281,1.0022,0.129074,-0.0344515,-0.0064075
381306,-0.000488281,-0.000244141,1.00195,0.0680387,-0.126004,-0.158995
381316,-0.000488281,-0.000244141,1.00146,0.00700355,-0.156522,-0.0674427
381326,-0.000488281,-0.000244141,1.00146,0.0375211,-0.156522,-0.158995
381336,-0.000732422,0,1.00073,0.0985563,-0.126004,-0.0674427
381376,-0.000732422,0,1.00098,0.00700355,-0.126004,0.0241101
381386,-0.000488281,-0.000244141,1.00122,-0.115067,-0.0649691,-0.189513
381396,-0.000732422,-0.000488281,1.00171,0.0985563,-0.187039,0.0546277
381406,-0.000976562,-0.000488281,1.00146,0.129074,-0.0649691,-0.0979602
381416,-0.000976562,-0.000488281,1.00122,0.190109,-0.126004,-0.0064075
381426,-0.000976562,-0.000976562,1.00195,0.159591,-0.339627,-0.250548
381446,-0.000244141,-0.000488281,1.00146,0.0375211,-0.0649691,-0.158995
381456,-0.000488281,0,1.00195,0.00700355,-0.0344515,-0.0674427
381466,-0.000244141,0,1.00195,0.190109,-0.0954866,0.0851452
381476,-0.000244141,0,1.00171,0.0680387,-0.0649691,-0.0674427
381486,-0.000488281,-0.000244141,1.0022,0.0985563,-0.0649691,-0.372618
381496,-0.000488281,-0.000488281,1.00195,0.00700355,-0.00393391,-0.128478
381506,-0.000976562,-0.000244141,1.0022,0.00700355,0.0265837,-0.0369251
381516,-0.000976562,-0.000488281,1.00195,0.00700355,0.0265837,-0.0674427
381526,-0.000976562,-0.000488281,1.00171,0.129074,-0.278592,0.0241101
381536,-0.000976562,-0.000244141,1.00146,0.0680387,-0.217557,0.0546277
381546,-0.0012207,0,1.00073,0.190109,-0.0344515,-0.0064075
381556,-0.000976562,0.000244141,1.00122,0.159591,-0.00393391,-0.220031
381566,-0.000976562,-0.000244141,1.00098,0.129074,-0.0649691,-0.0369251
381576,-0.0012207,0,1.00098,0.190109,-0.0344515,-0.128478
381586,-0.0012207,0.000244141,1.00098,-0.023514,-0.156522,-0.0064075
381596,-0.0012207,0.000244141,1.00122,0.0680387,-0.156522,-0.158995
381606,-0.000976562,0.000488281,1.00146,0.0375211,-0.126004,-0.0674427
381616,-0.000732422,-0.000244141,1.00195,0.0375211,-0.0344515,-0.0369251
381626,-0.000732422,-0.000488281,1.0022,0.159591,-0.00393391,-0.0674427
381686,-0.000976562,-0.000976562,1.00049,0.0375211,-0.217557,0.0241101
381696,-0.000976562,-0.000976562,1,0.00700355,-0.0954866,-0.0979602
381706,-0.000976562,-0.0012207,1.00024,0.0375211,-0.00393391,-0.0064075
381716,-0.000976562,-0.000976562,1.00049,0.00700355,-0.0649691,-0.0674427
381736,-0.0012207,-0.000488281,1.00024,0.0680387,-0.217557,-0.0979602
381766,-0.0012207,-0.000244141,1,0.0375211,-0.0954866,-0.189513
381786,-0.0012207,-0.000244141,1,0.00700355,-0.0344515,-0.0674427
381876,-0.000732422,-0.000732422,1,0.00700355,-0.00393391,-0.0369251
382056,-0.0012207,-0.000488281,1.00146,-0.0845492,-0.126004,-0.0369251
382076,-0.0012207,-0.000244141,1.00073,-0.0540316,-0.156522,-0.128478
382186,-0.00146484,0.000244141,1.00098,0.0680387,-0.0954866,-0.0064075
382206,-0.00170898,0.000244141,1.00073,0.129074,-0.187039,-0.311583
382346,-0.000976562,-0.000732422,1.00098,-0.0845492,-0.187039,-0.0979602
382416,-0.00146484,-0.000244141,1.00171,0.00700355,-0.126004,-0.0064075
382436,-0.0012207,-0.000488281,1.00195,0.0375211,0.0265837,-0.0979602
382466,-0.000976562,-0.000488281,1.00098,0.129074,0.0571012,-0.0979602
382536,-0.000732422,-0.000244141,1.00146,0.0985563,-0.0649691,-0.128478
382546,-0.000976562,-0.000488281,1.00171,0.0985563,-0.0954866,-0.0064075
382616,-0.000976562,-0.0012207,1.0022,-0.023514,-0.0649691,-0.0674427
382666,-0.000732422,-0.000976562,1.00146,0.129074,-0.0954866,-0.0979602
382696,-0.000732422,-0.000244141,1.00195,0.0375211,-0.0649691,-0.250548
382706,-0.000732422,-0.000732422,1.0022,0.0375211,-0.126004,0.0241101
382716,-0.000976562,-0.000976562,1.00122,-0.023514,-0.0649691,-0.158995
382726,-0.000976562,-0.000732422,1.00122,0.0985563,-0.0954866,-0.250548
382736,-0.000976562,-0.000732422,1.00146,-0.023514,0.0265837,-0.0979602
382756,-0.0012207,-0.000976562,1.00098,0.00700355,-0.187039,-0.0674427
382766,-0.0012207,-0.0012207,1.00146,0.129074,-0.0344515,-0.128478
382776,-0.0012207,-0.00146484,1.00146,-0.0540316,-0.0344515,-0.0369251
382786,-0.00146484,-0.0012207,1.00122,0.0985563,-0.248075,-0.220031
382796,-0.0012207,-0.000976562,1.00146,0.00700355,-0.126004,-0.0369251
382816,-0.000976562,-0.000488281,1.00073,-0.115067,-0.126004,-0.0674427
382846,-0.000976562,-0.000976562,1.00098,0.159591,-0.187039,0.0241101
382856,-0.000976562,-0.0012207,1.00098,0.0375211,-0.156522,-0.158995
382876,-0.000732422,-0.00146484,1.00049,0.129074,0.0876188,-0.0369251
382886,-0.000488281,-0.000976562,1.00024,0.129074,-0.0954866,-0.0979602
382896,0,-0.000488281,1.00098,0.159591,-0.00393391,-0.0369251
382906,-0.000488281,-0.000488281,1.00073,0.0375211,-0.00393391,-0.158995
382916,-0.000488281,-0.000244141,1.00122,0.0985563,-0.0344515,-0.0979602
382966,-0.000732422,-0.000732422,1,0.0985563,-0.156522,-0.128478
383006,-0.000244141,-0.000732422,1.00073,0.00700355,-0.126004,-0.0369251
383046,-0.000244141,-0.000488281,1.00146,0.0680387,-0.0344515,-0.158995
383066,-0.0012207,-0.000732422,1.00122,0.129074,-0.156522,-0.0064075
383086,-0.000732422,-0.000488281,1.00073,0.0375211,-0.0649691,-0.0979602
383106,-0.000976562,-0.0012207,1.00049,0.0680387,-0.00393391,-0.0674427
383136,-0.000732422,-0.000488281,1.00073,-0.115067,-0.217557,-0.0369251
383156,-0.000244141,0,1.00098,0.00700355,-0.0649691,-0.0674427
383186,-0.000732422,-0.000244141,1.00122,0.129074,-0.0649691,-0.0369251
383226,-0.000488281,-0.000244141,1.00195,0.0375211,-0.0954866,-0.128478
383256,-0.000732422,0,1.00122,0.220627,0.0571012,-0.158995
383266,-0.000732422,0,1.00146,0.00700355,0.0571012,-0.0064075
383356,-0.0012207,-0.000488281,1.00098,0.00700355,-0.0344515,-0.250548
383396,-0.000976562,-0.000488281,1.00098,0.0985563,0.0265837,-0.189513
383516,-0.000732422,-0.000976562,0.999512,0.0985563,-0.126004,-0.0979602
383616,-0.000976562,-0.000488281,1.0022,-0.0845492,-0.0649691,-0.220031
383686,-0.0012207,0,1.00171,0.0985563,-0.00393391,-0.0064075
383706,-0.00170898,-0.000976562,1.00146,0.159591,-0.0954866,-0.0674427
383776,-0.000244141,-0.000732422,1.00171,0.190109,-0.00393391,0.0241101
383846,-0.000732422,-0.000488281,1.0022,-0.023514,-0.0649691,-0.0369251
383856,-0.000488281,-0.000488281,1.00244,-0.023514,-0.0954866,-0.0064075
383946,-0.000488281,-0.000488281,1.00098,0.0985563,-0.0954866,-0.0369251
383956,-0.000732422,-0.000488281,1.00098,0.0985563,-0.0649691,-0.0979602
383966,-0.0012207,0,1.00098,0.0680387,0.0265837,-0.0674427
383976,-0.000976562,0,1.00098,-0.023514,-0.187039,-0.128478
383996,-0.00170898,-0.000488281,1.00073,-0.0845492,-0.00393391,-0.158995
384026,-0.0012207,-0.000732422,1.00195,-0.0540316,-0.156522,-0.0369251
384046,-0.000732422,-0.000488281,1.00073,0.129074,-0.0649691,-0.0064075
384056,-0.000732422,-0.000488281,1.00098,0.00700355,-0.126004,-0.0674427
384066,-0.000732422,-0.000732422,1.00098,-0.023514,-0.0954866,-0.0064075
384076,-0.000488281,-0.000732422,1.00073,0.00700355,-0.0954866,-0.0674427
384086,-0.000488281,-0.000732422,1.00122,0.159591,0.0571012,-0.158995
384096,-0.000732422,-0.000488281,1.00146,0.0375211,-0.0954866,-0.220031
384106,-0.000244141,-0.000488281,1.00171,0.0985563,-0.0954866,-0.0369251
384116,-0.000244141,-0.000488281,1.00171,0.0680387,-0.156522,-0.158995
384126,0,-0.000488281,1.00122,-0.0540316,-0.278592,-0.0369251
384136,0.000244141,-0.000488281,1.00122,0.00700355,-0.156522,-0.0674427
384166,-0.000244141,-0.000244141,1.00073,0.00700355,-0.156522,-0.0674427
384186,0,-0.000244141,1.00049,-0.023514,-0.278592,-0.158995
384196,0,0,1.00024,0.129074,0.0265837,-0.0064075
384216,-0.000244141,-0.000244141,0.999756,0.0680387,-0.0344515,0.0241101
384226,-0.000244141,0.000244141,1.00049,0.190109,0.0571012,-0.0369251
384236,-0.000732422,0.000244141,1.00024,0.129074,-0.0649691,-0.0674427
384246,-0.000488281,0.000244141,1.00073,0.190109,-0.0649691,-0.0064075
384256,-0.0012207,0.000244141,1.00049,0.0985563,-0.0649691,-0.0064075
384266,-0.00146484,0,1.00024,0.00700355,0.0876188,-0.0674427
384276,-0.0012207,0,1.00049,0.00700355,-0.0344515,-0.128478
384286,-0.00146484,0,1.00073,0.0985563,-0.0344515,0.0241101
384366,-0.000976562,0,1.00049,-0.023514,-0.00393391,-0.128478
384406,-0.0012207,-0.000244141,1.00049,0.0375211,-0.00393391,-0.250548
384436,-0.000976562,0,1,0.0985563,-0.0649691,-0.189513
384526,-0.00170898,-0.000732422,1.00073,-0.0845492,-0.00393391,-0.0979602
384566,-0.000976562,-0.0012207,1.00073,0.0985563,-0.0649691,-0.158995
384576,-0.000976562,-0.00146484,1.00146,0.00700355,-0.0649691,-0.128478
384746,-0.000976562,-0.0012207,1.00049,0.190109,-0.0954866,-0.0674427
384956,-0.000488281,-0.000244141,1.00049,0.0985563,-0.0344515,-0.128478
385036,-0.000488281,-0.000732422,1.00024,0.0680387,-0.248075,-0.158995
385076,-0.000244141,-0.000488281,1.00049,0.0985563,0.0876188,-0.128478
385156,-0.000976562,-0.000488281,1.00122,0.159591,-0.0649691,-0.0674427
385176,-0.00146484,-0.000732422,1.00098,0.0680387,-0.0954866,-0.0979602
385246,-0.00146484,-0.000732422,1,-0.145584,-0.187039,-0.281066
385286,-0.000976562,-0.000732422,1.00122,-0.023514,-0.0954866,0.0241101
385316,-0.00146484,-0.000732422,1.00049,0.129074,-0.0954866,-0.128478
385326,-0.00170898,-0.000732422,1.00024,0.00700355,0.0265837,-0.0064075
385336,-0.00170898,-0.000732422,1.00049,0.0985563,-0.156522,0.0546277
385346,-0.00170898,-0.000732422,1.00024,0.0985563,-0.126004,-0.0674427
385356,-0.00170898,-0.000488281,1.00049,0.0680387,-0.0954866,0.14618
385366,-0.000976562,-0.000732422,1.00024,0.0680387,-0.0344515,-0.158995
385376,-0.0012207,-0.000488281,1.00049,0.0985563,-0.00393391,-0.128478
385386,-0.0012207,0,1.00024,0.00700355,-0.00393391,-0.0674427
385396,-0.0012207,0.000244141,1.00122,-0.0845492,-0.00393391,-0.158995
385406,-0.0012207,0,1.00024,0.0680387,-0.0344515,-0.0674427
385416,-0.0012207,0,1.00049,0.0375211,-0.0344515,-0.0979602
385426,-0.000976562,0.000244141,1.00049,-0.023514,-0.0954866,-0.0979602
385436,-0.000976562,0.000244141,0.999756,0.129074,-0.0344515,-0.220031
385446,-0.000976562,0.000244141,0.999756,0.0375211,-0.00393391,-0.158995
385456,-0.000976562,0,0.999512,0.00700355,0.148654,-0.0674427
385466,-0.000976562,-0.000244141,0.999268,0.220627,-0.0649691,-0.220031
385476,-0.000976562,-0.000732422,0.999512,-0.023514,-0.0649691,-0.0979602
385486,-0.000976562,-0.000244141,0.999512,0.129074,-0.156522,-0.0674427
385496,-0.0012207,-0.000244141,1.00049,0.251144,-0.0649691,-0.0674427
385506,-0.000976562,-0.000244141,1.00098,0.00700355,-0.0954866,-0.158995
385516,-0.00146484,-0.000244141,1.00122,-0.023514,-0.0954866,-0.189513
385546,-0.00146484,-0.000244141,1.00073,0.0375211,0.0265837,-0.0674427
385806,-0.000488281,-0.000244141,1.00049,0.0680387,-0.187039,-0.250548
385816,-0.000732422,-0.000244141,1.00049,0.00700355,-0.0649691,-0.0979602
385836,-0.000976562,-0.000244141,1.00024,0.0985563,0.0265837,0.0241101
385876,-0.00146484,-0.000732422,1.00073,-0.023514,0.0876188,-0.158995
385996,-0.0012207,-0.000732422,1.00049,0.0680387,-0.217557,-0.189513
386036,-0.000976562,-0.000244141,1.00098,0.00700355,-0.156522,-0.0979602
386066,-0.000732422,-0.000976562,1.00073,-0.0845492,-0.0954866,-0.0979602
386086,-0.000732422,-0.000732422,1.00024,-0.0540316,-0.187039,-0.128478
386106,-0.000488281,-0.000732422,1.00098,0.159591,-0.156522,-0.220031
386126,-0.000244141,-0.000488281,1,-0.023514,0.0571012,-0.0674427
386186,-0.000976562,-0.000732422,1.00024,0.00700355,-0.00393391,-0.0369251
386206,-0.000976562,-0.000244141,1.00024,0.0985563,0.0571012,-0.0979602
386236,-0.0012207,-0.000244141,1.00098,0.159591,-0.156522,-0.0674427
386276,-0.000732422,-0.000488281,1.00122,0.220627,-0.156522,-0.0979602
386296,-0.000488281,-0.000732422,1.00122,0.129074,-0.0344515,-0.0979602
386326,-0.000732422,-0.000732422,1.00146,0.0985563,-0.187039,-0.0674427
386366,-0.000732422,-0.000488281,1.00122,0.00700355,0.0571012,-0.0979602
386406,-0.00146484,-0.000488281,1.00098,0.159591,-0.0954866,-0.128478
386496,-0.000732422,-0.000488281,1.00073,0.0375211,-0.187039,-0.0674427
386516,-0.000976562,-0.000732422,1.00024,-0.0540316,0.0876188,-0.0674427
386526,-0.0012207,-0.000732422,1.00049,0.0985563,-0.217557,-0.128478
386536,-0.000976562,-0.000488281,0.999756,0.0985563,-0.0344515,-0.189513
386546,-0.000976562,-0.000732422,1.00073,0.0375211,-0.0954866,-0.189513
386626,-0.000976562,-0.000488281,1.00024,0.00700355,-0.0954866,-0.128478
386646,-0.000976562,-0.000244141,1.00098,0.0985563,-0.0954866,-0.220031
386656,-0.000488281,-0.000244141,1.00171,0.0985563,-0.187039,-0.0979602
386666,-0.000488281,-0.000244141,1.00171,0.0680387,-0.0344515,-0.0979602
386676,-0.000488281,-0.000244141,1.00122,0.0985563,-0.00393391,-0.0674427
386686,-0.000488281,-0.000244141,1.00073,0.0680387,-0.0649691,-0.128478
386696,-0.000732422,-0.000488281,1.00122,0.129074,-0.0954866,-0.0674427
386706,-0.000732422,-0.000488281,1.00146,0.129074,-0.0649691,-0.220031
386716,-0.000488281,-0.000244141,1.00146,0.00700355,-0.00393391,-0.158995
386726,-0.000976562,0,1.00073,-0.0540316,-0.156522,-0.0674427
386736,-0.000732422,-0.000244141,1.00073,0.00700355,-0.0649691,-0.128478
386746,-0.000976562,0,1.00098,0.159591,-0.0954866,-0.0369251
386756,-0.0012207,0.000244141,1.00073,0.00700355,-0.126004,-0.0979602
386786,-0.000976562,-0.000488281,1.00024,0.0680387,-0.00393391,-0.0369251
386796,-0.000976562,-0.000732422,1.00049,0.00700355,-0.126004,-0.158995
386806,-0.000488281,-0.000488281,1.00024,0.0375211,-0.0649691,-0.220031
386816,-0.000488281,0,1,-0.023514,-0.00393391,-0.189513
386846,-0.000732422,0.000244141,0.999756,0.0375211,-0.126004,-0.128478
386886,-0.0012207,0,1.00122,0.129074,-0.0649691,0.0241101
386906,-0.0012207,0,1.00049,0.0680387,-0.126004,-0.220031
386916,-0.000976562,-0.000244141,1.00098,0.0680387,0.0265837,-0.0674427
386926,-0.000488281,-0.000488281,1.00122,-0.023514,-0.126004,-0.0369251
386986,-0.000488281,-0.000732422,1.00171,0.0680387,-0.0344515,-0.0674427
387006,-0.000732422,-0.000732422,1.00049,0.0985563,-0.156522,-0.189513
387036,-0.000976562,-0.000488281,1.00049,0.0680387,-0.00393391,-0.0369251
387086,-0.000732422,0,1.00073,0.129074,-0.0649691,-0.281066
387106,-0.000732422,0,1.00122,0.0680387,0.0571012,-0.128478
387136,-0.000732422,-0.000732422,1.00122,0.0375211,-0.0649691,-0.220031
387166,-0.000488281,-0.000244141,1.00024,0.0985563,-0.126004,0.0546277
387296,-0.0012207,-0.000488281,1.00073,0.0375211,-0.156522,-0.0979602
387376,-0.000488281,-0.000732422,1,-0.023514,-0.00393391,-0.0064075
387406,-0.000976562,-0.000488281,1.00073,0.0680387,-0.0344515,-0.158995
387426,-0.000732422,-0.000488281,1.00098,0.0375211,-0.0649691,-0.0979602
387506,-0.000976562,-0.000244141,1.00073,0.00700355,-0.0954866,-0.0674427
387546,-0.000488281,-0.000244141,1.00073,-0.0540316,-0.0649691,-0.0979602
387616,-0.0012207,-0.000976562,1,0.00700355,-0.0649691,-0.220031
387646,-0.000732422,-0.000488281,0.999756,0.00700355,-0.0344515,-0.0674427
387686,-0.000732422,-0.000732422,1,-0.0540316,-0.156522,-0.0369251
387776,-0.000244141,-0.000244141,1.00024,0.00700355,-0.0344515,-0.128478
387826,-0.000732422,-0.000244141,1.00146,0.129074,-0.187039,-0.0369251
387876,-0.000976562,-0.000488281,1.00073,0.0680387,-0.156522,-0.0064075
387926,-0.000488281,-0.000732422,1.00146,0.00700355,-0.126004,-0.158995
387936,-0.000732422,-0.000976562,1.00073,0.159591,0.118136,-0.158995
387956,-0.000488281,-0.0012207,0.999756,-0.023514,-0.0344515,-0.281066
387966,-0.000732422,-0.0012207,1,0.00700355,-0.0344515,-0.158995
387986,-0.000976562,-0.000732422,0.999268,0.00700355,-0.0954866,-0.128478
387996,-0.000976562,-0.000488281,0.999512,0.0375211,-0.0649691,-0.128478
388006,-0.000732422,-0.000488281,1,0.0680387,0.0571012,0.0241101
388016,-0.000732422,-0.000244141,1.00073,-0.023514,-0.126004,-0.128478
388026,-0.000732422,-0.000244141,1.00122,-0.0845492,-0.217557,-0.0979602
388036,-0.000244141,-0.000244141,1.00146,0.0375211,-0.0954866,0.0851452
388046,-0.000244141,0,1.00171,0.129074,-0.0344515,-0.0674427
388056,-0.000488281,-0.000488281,1.00049,0.0375211,-0.0649691,-0.128478
388076,-0.000488281,-0.000976562,1.00024,0.0375211,-0.0954866,-0.158995
388086,-0.0012207,-0.000732422,1.00073,0.159591,-0.0344515,-0.128478
388116,-0.000976562,-0.000732422,1.00098,0.129074,-0.156522,-0.158995
388126,-0.000976562,-0.000732422,1.00024,0.220627,-0.00393391,-0.0369251
388136,-0.000732422,-0.000732422,1.00049,0.0985563,-0.187039,-0.128478
388176,-0.000976562,-0.000488281,0.999512,-0.023514,0.0265837,-0.158995
388186,-0.000976562,-0.000732422,1.00024,-0.023514,-0.126004,-0.0979602
388206,-0.000732422,-0.000732422,1.00024,0.0680387,0.0265837,-0.0979602
388216,-0.000732422,-0.000732422,1.00049,0.0375211,-0.0344515,-0.250548
388316,-0.000732422,0,0.999268,0.0375211,-0.0954866,-0.128478
388346,-0.000976562,-0.000244141,0.999023,0.00700355,-0.00393391,-0.220031
388366,-0.000488281,-0.000244141,0.999756,0.159591,-0.0344515,-0.158995
388456,-0.000488281,-0.000732422,1.00098,0.0680387,0.0876188,-0.0369251
388516,-0.000976562,-0.000732422,1.00024,0.0985563,-0.0954866,-0.0979602
388716,-0.000976562,-0.00146484,0.999512,0.0680387,-0.126004,-0.158995
388806,-0.000976562,-0.000976562,1.00049,-0.176102,-0.0649691,-0.0674427
388846,-0.000732422,-0.000732422,0.999268,-0.176102,-0.156522,0.0241101
388856,-0.000976562,-0.000976562,0.999756,0.159591,-0.0954866,-0.0674427
388936,-0.000976562,-0.000488281,1.00024,0.159591,-0.0954866,-0.189513
388966,-0.000976562,-0.000976562,1.00049,0.159591,-0.0344515,-0.189513
388976,-0.000976562,-0.000976562,1.00049,0.00700355,-0.126004,-0.128478
389086,-0.000488281,-0.000732422,1.00049,-0.0540316,-0.217557,-0.0674427
389126,0,-0.00170898,0.999756,0.129074,-0.126004,-0.158995
389136,-0.000244141,-0.00146484,1.00024,-0.0540316,-0.156522,-0.0369251
389196,-0.000244141,-0.0012207,1,-0.0540316,-0.126004,-0.128478
389216,-0.000244141,-0.000732422,1.00049,-0.115067,0.0876188,-0.0369251
389256,-0.000488281,-0.000732422,1.00024,-0.0845492,-0.156522,-0.220031
389296,-0.000976562,-0.000244141,1.00098,0.0375211,-0.0649691,-0.189513
389306,-0.000976562,-0.000732422,1.00122,0.220627,0.0876188,-0.0369251
389316,-0.000976562,-0.000488281,1.00049,0.190109,-0.126004,0.0241101
389326,-0.000732422,-0.000732422,1.00073,0.0985563,-0.126004,0.0851452
389336,-0.000732422,-0.000976562,1,0.00700355,-0.187039,-0.0369251
389346,-0.000732422,-0.000976562,0.999512,0.00700355,-0.0344515,-0.158995
389366,-0.0012207,-0.000732422,0.998779,-0.023514,0.0265837,-0.0369251
389376,-0.00146484,-0.000732422,0.999268,0.0375211,-0.0344515,-0.0369251
389386,-0.0012207,-0.000488281,0.999512,0.0375211,-0.0954866,-0.0979602
389396,-0.000976562,-0.000976562,0.999512,0.00700355,-0.126004,-0.128478
389406,-0.000732422,-0.000732422,0.999756,0.00700355,0.0265837,-0.158995
389416,-0.000732422,-0.000976562,0.999512,0.0985563,-0.0344515,0.115663
389426,-0.000976562,-0.000976562,1,-0.023514,0.0571012,-0.0674427
389446,-0.000976562,-0.000488281,0.999512,0.0985563,-0.217557,0.0851452
389456,-0.00146484,-0.000732422,0.999512,0.0375211,-0.217557,-0.0064075
389466,-0.000976562,-0.000732422,0.999756,0.129074,-0.0649691,-0.128478
389476,-0.000976562,-0.000732422,0.999756,0.0680387,-0.126004,-0.158995
389546,-0.000976562,-0.000976562,1.00073,0.129074,-0.156522,0.0241101
389646,-0.000488281,-0.000976562,1.00049,0.129074,-0.156522,-0.0979602
389676,-0.000488281,-0.000488281,1,0.159591,-0.0649691,-0.0369251
389706,0,0,1,0.220627,-0.217557,-0.0979602
389756,-0.000732422,-0.000732422,1,0.159591,-0.0344515,-0.0369251
389886,-0.000732422,-0.000976562,1.00024,0.0985563,0.0571012,-0.158995
389896,-0.000732422,-0.000976562,1.00024,-0.0540316,0.0571012,-0.128478
390066,-0.000488281,-0.000976562,0.999756,0.251144,-0.126004,-0.0979602
390166,-0.0012207,-0.000732422,1,0.0375211,-0.0344515,-0.250548
390246,-0.000488281,-0.000976562,1.00049,0.00700355,-0.0954866,-0.128478
390266,-0.000488281,-0.000488281,1.00098,-0.115067,-0.156522,-0.0674427
390276,-0.000488281,-0.000732422,1.00122,0.190109,-0.0344515,0.0241101
390366,-0.00170898,-0.000488281,1.00024,-0.0540316,-0.0649691,-0.158995
390426,-0.000976562,-0.000732422,1.00024,0.00700355,-0.126004,-0.220031
390476,-0.00146484,-0.000488281,0.999512,-0.115067,-0.0344515,-0.128478
390486,-0.0012207,-0.000244141,0.999512,0.0375211,-0.156522,-0.0369251
390536,-0.0012207,-0.000244141,1.00049,0.0375211,-0.126004,-0.158995
390556,-0.000732422,-0.000244141,1,0.0985563,-0.126004,0.0241101
390566,-0.000732422,-0.000488281,1.00073,0.129074,-0.00393391,-0.189513
390576,-0.000732422,-0.000244141,1.00049,0.0680387,-0.0649691,-0.128478
390586,-0.000976562,0,1.00073,0.0375211,-0.0649691,-0.128478
390596,-0.000976562,-0.000244141,1.00049,0.159591,0.148654,-0.128478
390606,-0.000732422,-0.000488281,1.00073,0.0375211,-0.0344515,-0.0674427
390616,-0.000488281,-0.000488281,1.00073,0.0985563,-0.187039,0.0241101
390626,-0.000732422,-0.000244141,1.00098,-0.176102,-0.0954866,-0.0979602
390636,-0.000976562,0,1.00122,-0.0540316,-0.0954866,-0.0979602
390646,-0.000976562,0,1.00122,0.0375211,0.0571012,-0.0979602
390656,-0.000976562,-0.000244141,1.00146,0.0680387,-0.126004,-0.0674427
390676,-0.000732422,-0.000488281,1.00171,0.00700355,0.0876188,-0.0369251
390686,-0.000976562,-0.000976562,1.00122,0.0985563,-0.0954866,-0.0369251
390696,-0.000732422,-0.000976562,1.00049,0.129074,-0.00393391,0.0241101
390716,-0.0012207,-0.000976562,1.00049,-0.0540316,-0.217557,-0.128478
390736,-0.0012207,-0.000488281,1.00073,0.00700355,-0.126004,-0.0979602
390746,-0.0012207,-0.000488281,1.00073,0.0680387,-0.126004,-0.189513
390756,-0.000976562,-0.000488281,1.00073,0.0375211,-0.0954866,-0.0369251
390776,-0.000976562,-0.000488281,1.00024,0.0985563,-0.0954866,0.0851452
390786,-0.000732422,-0.000488281,1,0.00700355,-0.187039,-0.128478
390806,-0.0012207,-0.000732422,1.00024,0.00700355,-0.00393391,0.0241101
390816,-0.000976562,-0.000976562,0.999268,0.0985563,0.0265837,-0.0369251
390826,-0.000732422,-0.000488281,0.999023,0.0375211,0.0265837,-0.0369251
390836,-0.000732422,-0.000976562,0.999023,-0.0540316,-0.0649691,-0.0979602
390886,-0.000732422,-0.000244141,0.998779,0.0375211,-0.126004,-0.0064075
390946,-0.000976562,-0.000976562,0.999756,0.0680387,-0.0649691,-0.0064075
390976,-0.000732422,-0.000488281,0.999756,0.0680387,-0.0649691,-0.0369251
391006,-0.000488281,-0.000244141,0.999756,0.00700355,-0.187039,-0.0979602
391026,-0.000732422,-0.000488281,0.999023,0.0680387,-0.0344515,-0.0064075
391046,-0.000488281,-0.000488281,0.999268,0.159591,-0.0344515,-0.128478
391056,-0.000976562,-0.000488281,0.999268,0.190109,-0.0344515,-0.250548
391106,-0.000976562,-0.000732422,1.00049,-0.023514,-0.0954866,-0.0979602
391186,-0.00146484,-0.000244141,1,0.0680387,-0.0344515,-0.0674427
391316,-0.000244141,-0.000732422,1.00024,0.190109,-0.00393391,-0.189513
391346,-0.000244141,-0.000244141,1.00098,-0.023514,-0.0649691,-0.0979602
391376,-0.000732422,-0.000732422,1.00049,0.159591,-0.0954866,-0.128478
391406,-0.000732422,-0.0012207,0.999756,0.0375211,-0.0649691,-0.0369251
391436,-0.000976562,-0.000732422,0.999756,-0.023514,-0.248075,-0.128478
391616,-0.000976562,-0.000976562,1.00073,0.00700355,-0.126004,-0.128478
391626,-0.000732422,-0.0012207,1.00146,0.0985563,-0.126004,0.0546277
391656,-0.000732422,-0.000732422,1.00122,0.00700355,0.0265837,-0.281066
391666,-0.000488281,-0.0012207,1.00098,0.0680387,-0.278592,-0.189513
391676,-0.000488281,-0.0012207,1.00073,0.0680387,-0.0954866,0.0241101
391736,-0.000488281,-0.000488281,0.999756,0.00700355,-0.00393391,-0.0979602
391756,-0.000244141,-0.000488281,0.999756,0.00700355,-0.0954866,-0.0979602
391786,-0.000488281,-0.000732422,1.00073,-0.023514,-0.0954866,-0.0674427
391796,-0.000244141,-0.000976562,1,0.129074,-0.248075,-0.189513
391816,-0.000244141,-0.0012207,1,0.0680387,-0.0344515,0.0241101
391856,-0.000488281,-0.000976562,0.999512,0.00700355,-0.0954866,-0.0979602
391886,-0.000976562,-0.000732422,1.00049,0.129074,-0.156522,-0.0674427
391896,-0.000976562,-0.000732422,1.00024,-0.023514,-0.126004,-0.0979602
391926,-0.000976562,-0.000488281,1.00024,-0.0540316,-0.0649691,0.0546277
391936,-0.000976562,-0.000732422,1.00049,0.0375211,-0.0344515,-0.0064075
391946,-0.000976562,-0.000732422,0.999512,0.0680387,-0.0954866,-0.281066
391976,-0.000976562,-0.000732422,0.999268,-0.0540316,0.179172,-0.0674427
391986,-0.000976562,-0.000732422,0.999268,0.0680387,-0.0954866,-0.250548
391996,-0.000732422,-0.0012207,0.999268,0.0375211,-0.0954866,-0.158995
392006,-0.000244141,-0.0012207,0.999756,0.0375211,0.0265837,-0.128478
392016,-0.000488281,-0.000732422,1,0.00700355,-0.187039,-0.128478
392026,-0.000732422,-0.000732422,1,0.220627,-0.0954866,-0.158995
392036,-0.0012207,-0.000976562,0.999756,0.0985563,-0.00393391,-0.0674427
392046,-0.000732422,-0.000976562,1,-0.0845492,-0.0649691,-0.189513
392056,-0.000732422,-0.000976562,0.999023,0.0375211,-0.0954866,-0.128478
392076,-0.000488281,-0.000732422,0.998291,-0.023514,-0.156522,-0.128478
392086,-0.000244141,-0.000732422,0.999023,0.220627,-0.278592,-0.250548
392106,-0.000244141,-0.000488281,0.999268,0.0985563,-0.187039,-0.158995
392116,-0.000488281,-0.000732422,0.999268,0.0375211,-0.0954866,0.0241101
392126,-0.000244141,-0.000732422,0.999756,0.0680387,-0.156522,-0.158995
392136,-0.000244141,-0.0012207,0.999756,-0.0845492,-0.00393391,-0.158995
392146,0,-0.0012207,0.999756,-0.023514,-0.0954866,-0.0979602
392156,-0.000244141,-0.000732422,0.999512,-0.023514,-0.0954866,-0.250548
392166,-0.000244141,0,0.999268,-0.115067,-0.156522,-0.0674427
392176,-0.000732422,0,1,0.0985563,-0.248075,-0.158995
392186,-0.000976562,0,0.999756,0.0680387,-0.187039,-0.0674427
392196,-0.0012207,0,1,-0.023514,-0.187039,-0.158995
392206,-0.00146484,-0.000244141,1.00122,-0.0540316,-0.00393391,-0.0674427
392226,-0.0012207,-0.000244141,1.00146,0.0985563,-0.0649691,-0.158995
392236,-0.000976562,-0.000488281,1.00073,-0.0540316,-0.0649691,-0.220031
392246,-0.000488281,-0.000244141,1.00024,0.0680387,-0.0649691,-0.0064075
392266,-0.000976562,0,1.00049,-0.0540316,-0.187039,-0.0064075
392366,0.000244141,0,1,-0.0540316,-0.187039,-0.158995
392616,-0.000488281,-0.000732422,1,0.0985563,-0.00393391,-0.128478
392756,-0.000732422,0,1.00073,0.0985563,-0.126004,-0.0979602
392776,-0.000488281,-0.000488281,0.999756,0.00700355,-0.126004,-0.220031
392806,-0.000244141,-0.000488281,1.00024,-0.115067,-0.156522,-0.189513
392836,-0.000732422,-0.000488281,1.00024,-0.023514,-0.0649691,-0.0064075
392856,-0.000732422,-0.000244141,0.999268,0.0680387,-0.0649691,-0.158995
392866,-0.000732422,-0.000488281,0.999512,0.0680387,-0.217557,-0.0064075
392886,-0.000488281,-0.000488281,0.999023,0.0375211,-0.248075,-0.220031
392916,-0.000976562,-0.000244141,0.998779,0.251144,-0.126004,-0.189513
392946,-0.000976562,-0.000244141,0.999756,0.00700355,-0.187039,-0.0674427
392976,-0.000732422,-0.000244141,0.998535,0.0680387,-0.00393391,-0.0674427
393006,-0.000488281,-0.000732422,0.999512,0.129074,0.118136,-0.250548
393016,-0.000732422,-0.000976562,0.999512,0.0375211,-0.0649691,-0.128478
393026,-0.000488281,-0.000732422,0.999023,0.220627,0.0265837,-0.158995
393036,-0.000732422,-0.000732422,0.999023,0.0680387,-0.187039,-0.0674427
393056,-0.000488281,-0.000976562,0.999512,0.129074,-0.187039,-0.0369251
393076,-0.000244141,-0.000976562,0.999512,0.0680387,-0.0344515,-0.128478
393096,-0.000488281,-0.0012207,1,0.0680387,-0.00393391,-0.128478
393106,-0.000488281,-0.0012207,1.00098,0.00700355,-0.0649691,-0.189513
393156,-0.000976562,-0.000732422,0.999268,0.00700355,-0.0344515,-0.128478
393226,-0.000732422,-0.000732422,1.00024,-0.023514,0.0571012,-0.0674427
393236,-0.000732422,-0.000732422,1.00024,0.129074,-0.00393391,-0.128478
393256,-0.000244141,-0.000976562,1.00049,0.190109,-0.156522,-0.220031
393266,-0.000244141,-0.000732422,1,-0.0845492,-0.126004,-0.0369251
393286,0,-0.000244141,1,0.129074,-0.0649691,-0.189513
393296,-0.000488281,-0.000488281,1,-0.023514,-0.0954866,-0.128478
393306,-0.000732422,-0.000244141,0.999756,0.0680387,-0.0649691,0.0241101
393316,-0.000732422,-0.000488281,1,0.129074,0.0876188,-0.0979602
393326,-0.000732422,-0.000244141,0.999756,0.0985563,-0.187039,-0.0369251
393346,-0.000488281,0,0.999512,0.0375211,-0.156522,-0.158995
393356,-0.000732422,-0.000488281,0.999268,-0.0845492,0.0876188,0.0546277
393366,-0.000732422,-0.000488281,0.999023,0.251144,-0.0649691,-0.0674427
393376,-0.000976562,-0.000976562,0.999023,0.0680387,-0.0954866,-0.0369251
393386,-0.000976562,-0.000732422,0.998779,0.159591,-0.126004,-0.189513
393416,-0.000488281,-0.000732422,0.999756,0.159591,-0.0649691,-0.0674427
393426,-0.000732422,-0.000732422,0.999756,0.220627,-0.0649691,-0.0369251
393466,-0.000488281,-0.000488281,1.00024,0.0680387,-0.126004,-0.0979602
393586,-0.000244141,-0.000732422,1.00024,0.0985563,-0.0344515,-0.220031
393636,-0.000244141,-0.000488281,0.999268,0.129074,0.0265837,-0.0674427
393656,-0.000488281,-0.000732422,0.999268,-0.023514,0.0876188,-0.250548
393816,-0.0012207,-0.000732422,0.999023,-0.023514,-0.0649691,-0.189513
393946,-0.000732422,-0.000976562,0.999512,-0.023514,-0.0954866,-0.128478
394046,-0.000244141,-0.0012207,0.999512,0.00700355,-0.0649691,-0.189513
394056,0,-0.000976562,0.998779,-0.023514,0.0876188,-0.0064075
394086,-0.000488281,-0.000976562,0.999756,0.0680387,-0.0344515,-0.158995
394106,-0.000732422,-0.000732422,0.999268,0.0985563,-0.0344515,-0.220031
394166,-0.000488281,-0.000488281,0.999512,0.00700355,-0.0954866,-0.0979602
394236,-0.000976562,-0.000976562,1,0.0375211,-0.126004,-0.0674427
394276,-0.0012207,-0.000976562,0.999512,0.00700355,-0.0344515,-0.158995
394306,-0.000732422,-0.000488281,0.998535,0.190109,-0.187039,-0.0064075
394406,-0.000732422,-0.000976562,1,0.0375211,-0.30911,-0.250548
394456,-0.000732422,-0.0012207,0.999756,0.129074,-0.0344515,-0.128478
394526,-0.000488281,-0.000488281,1.00049,0.0680387,-0.126004,-0.158995
394536,-0.000732422,-0.000244141,1.00024,-0.023514,-0.30911,-0.0674427
394546,-0.000976562,-0.000488281,1.00024,0.0985563,-0.217557,-0.189513
394556,-0.000732422,-0.000488281,1.00049,0.0985563,0.0571012,-0.0369251
394576,-0.000488281,-0.000732422,1.00073,0.0985563,-0.126004,-0.0369251
394586,-0.000488281,-0.000976562,1.00073,0.00700355,-0.0649691,-0.128478
394596,-0.000732422,-0.000732422,0.999512,0.0375211,-0.0344515,-0.128478
394606,-0.000488281,-0.000732422,1,-0.023514,-0.187039,-0.0369251
394616,-0.000488281,-0.000976562,0.999756,0.129074,-0.0954866,-0.158995
394626,-0.000488281,-0.000732422,0.999756,0.0680387,0.0876188,-0.0064075
394636,-0.000488281,-0.000732422,0.999268,0.00700355,-0.0954866,-0.189513
394646,-0.000732422,-0.000732422,0.999268,0.00700355,-0.0344515,-0.158995
394656,-0.000732422,-0.000732422,1,0.0985563,-0.00393391,-0.0674427
394666,-0.000976562,-0.0012207,1.00024,-0.023514,0.148654,-0.0979602
394676,-0.000976562,-0.000976562,0.999756,0.0680387,0.0265837,-0.0979602
394696,-0.000488281,-0.000976562,1,0.0375211,0.0265837,-0.0979602
394706,-0.000244141,-0.000976562,0.999512,0.0985563,-0.00393391,-0.0979602
394716,-0.000488281,-0.000488281,0.999512,0.159591,0.0265837,-0.189513
394746,-0.000488281,-0.000488281,0.999268,0.190109,0.0265837,-0.128478
394756,-0.000732422,-0.000488281,0.999756,0.0680387,-0.156522,-0.0674427
394766,-0.000976562,-0.000732422,0.999756,0.0375211,-0.0649691,-0.0064075
394776,-0.000976562,-0.000732422,0.999512,0.129074,-0.00393391,-0.0369251
394826,-0.0012207,-0.000976562,0.999512,0.0375211,-0.0344515,0.0546277
394876,-0.000488281,-0.000976562,0.999268,0.00700355,0.0876188,-0.189513
394896,-0.000488281,-0.0012207,0.999512,0.0375211,-0.0344515,-0.0064075
394936,-0.000244141,-0.0012207,0.999023,0.0985563,-0.126004,-0.189513
394956,-0.000488281,-0.000976562,0.999268,0.129074,-0.156522,-0.0369251
395066,-0.0012207,-0.000488281,1,-0.0540316,-0.217557,-0.189513
395086,-0.000976562,-0.000976562,0.998535,0.0375211,0.0571012,-0.0979602
395206,-0.0012207,-0.0012207,0.998779,0.159591,-0.0344515,-0.0369251
395236,-0.000976562,-0.00170898,0.998291,0.0680387,0.209689,-0.189513
395256,-0.00170898,-0.00146484,0.999512,0.0985563,0.118136,-0.0674427
395296,-0.000976562,-0.000732422,0.998535,0.129074,-0.187039,-0.0369251
395346,-0.000976562,-0.000976562,0.998047,-0.023514,-0.0954866,-0.0979602
395356,-0.000732422,-0.000976562,0.998291,0.220627,0.0265837,-0.0674427
395436,-0.000244141,-0.000976562,0.999268,0.190109,-0.0649691,-0.0979602
395466,0,-0.0012207,1,0.129074,-0.0954866,-0.128478
395516,-0.000488281,-0.0012207,0.999756,0.190109,-0.156522,-0.0979602
395556,-0.000244141,-0.0012207,1,0.0680387,-0.217557,-0.0979602
395576,-0.000488281,-0.000976562,1.00024,0.00700355,-0.00393391,0.0241101
395596,-0.000732422,-0.000976562,1.00049,0.0375211,-0.217557,-0.128478
395686,-0.000732422,-0.000488281,0.999512,0.159591,-0.187039,-0.128478
395696,-0.000488281,-0.000488281,1,0.220627,-0.00393391,-0.128478
395706,-0.000488281,-0.000732422,1,-0.023514,-0.156522,-0.0369251
395726,-0.000732422,-0.000244141,0.999268,0.0985563,0.0571012,0.0546277
395736,-0.000976562,-0.000732422,0.998779,0.0375211,-0.00393391,-0.0369251
395746,-0.000732422,-0.000732422,0.999756,0.0680387,0.0876188,-0.158995
395756,-0.000732422,-0.000488281,0.999268,0.00700355,-0.00393391,-0.0979602
395776,-0.000488281,-0.000732422,0.999023,0.129074,-0.00393391,-0.128478
395786,-0.000488281,-0.000732422,0.999023,0.0680387,-0.278592,-0.281066
395796,-0.0012207,-0.000732422,0.998779,0.129074,-0.0344515,-0.0979602
395806,-0.0012207,-0.000732422,0.998047,0.0985563,-0.0649691,-0.0674427
395816,-0.0012207,-0.000732422,0.998535,0.190109,-0.0954866,-0.128478
395826,-0.0012207,-0.000488281,0.999023,0.00700355,-0.0954866,-0.0979602
395836,-0.000732422,-0.000732422,0.999512,0.0985563,-0.126004,-0.189513
395846,-0.000488281,-0.000976562,0.999756,0.129074,-0.00393391,0.0546277
395866,-0.000976562,-0.000732422,0.998291,0.00700355,-0.0649691,-0.0674427
395876,-0.0012207,-0.000732422,0.998047,0.0375211,-0.126004,-0.0979602
395886,-0.00146484,-0.000488281,0.998535,0.0985563,0.0876188,-0.128478
395896,-0.00146484,-0.000244141,0.999023,0.0680387,-0.00393391,-0.0674427
395906,-0.00146484,-0.000732422,0.999756,0.129074,-0.0344515,-0.0369251
395916,-0.000976562,-0.000732422,0.999756,-0.023514,-0.00393391,-0.220031
395926,-0.000732422,-0.000732422,1,0.0680387,-0.187039,-0.128478
395936,-0.000976562,-0.000976562,1.00049,0.0680387,-0.0954866,0.0546277
395946,-0.000976562,-0.000732422,1,-0.0845492,-0.00393391,-0.0979602
395956,-0.0012207,-0.000732422,0.999268,0.0680387,0.0265837,-0.0674427
395966,-0.00146484,-0.000488281,0.999023,0.190109,0.0265837,-0.0979602
395986,-0.000976562,-0.000732422,0.999756,-0.0540316,-0.0344515,0.0241101
395996,-0.000976562,-0.000976562,1,0.0680387,0.0265837,-0.189513
396006,-0.00170898,-0.000976562,0.999512,0.159591,-0.00393391,-0.158995
396016,-0.00195312,-0.0012207,1,0.129074,0.0876188,-0.189513
396026,-0.00195312,-0.0012207,1,0.129074,-0.00393391,-0.0979602
396036,-0.00170898,-0.000976562,1,0.00700355,-0.0344515,-0.128478
396076,-0.000976562,-0.000488281,1,-0.115067,-0.0649691,0.0546277
396116,-0.000976562,-0.000488281,0.999756,-0.0845492,-0.156522,-0.0064075
396126,-0.000976562,-0.000244141,1,0.0985563,-0.0344515,0.0546277
396136,-0.000732422,-0.000488281,0.999512,0.0375211,-0.00393391,-0.128478
396146,-0.000488281,-0.000488281,0.999512,0.0680387,-0.0649691,-0.128478
396246,-0.000732422,-0.0012207,0.999756,0.190109,-0.00393391,-0.220031
396256,-0.000732422,-0.000976562,1,-0.0540316,-0.187039,-0.0674427
396266,-0.000732422,-0.000976562,1.00024,0.129074,-0.156522,-0.128478
396306,-0.000732422,-0.000976562,0.999756,0.0985563,-0.126004,-0.220031
396396,-0.0012207,-0.0012207,0.999756,0.0680387,-0.00393391,-0.0369251
396506,-0.000976562,-0.000732422,0.998047,0.0680387,-0.0954866,-0.0979602
396766,-0.000488281,-0.000244141,1.00024,0.0985563,-0.156522,-0.128478
396836,-0.000976562,-0.000976562,0.999756,0.0985563,-0.00393391,-0.0674427
396876,-0.000488281,-0.000976562,0.998779,0.159591,-0.0344515,-0.158995
396896,-0.000732422,-0.000976562,0.998779,0.00700355,0.0571012,-0.158995
397026,0,-0.000488281,0.998047,-0.0540316,-0.126004,-0.0979602
397046,-0.000488281,-0.000488281,0.998779,0.129074,-0.00393391,0.0241101
397066,0.000244141,-0.0012207,0.998779,0.0680387,-0.00393391,-0.0369251
397076,-0.000488281,-0.000976562,0.999512,0.0375211,-0.00393391,0.0851452
397116,0,-0.000976562,0.999512,0.0680387,-0.126004,-0.189513
397176,0,-0.000488281,1.00024,0.0985563,-0.0954866,-0.158995
397186,0,-0.000732422,0.999512,0.0680387,-0.0649691,-0.281066
397196,0,-0.000732422,0.999268,-0.0540316,-0.126004,-0.220031
397206,-0.000244141,-0.000488281,0.999268,0.00700355,-0.0344515,-0.128478
397216,-0.000488281,-0.000732422,0.998291,0.0985563,-0.126004,0.0546277
397226,-0.000976562,-0.000732422,0.998535,0.00700355,-0.126004,-0.0369251
397236,-0.000976562,-0.000976562,0.998779,-0.0540316,-0.156522,-0.189513
397246,-0.000976562,-0.000732422,0.998779,0.190109,-0.0344515,-0.0064075
397256,-0.000488281,-0.000732422,0.999023,0.0680387,-0.156522,-0.128478
397266,-0.000488281,-0.000732422,0.999512,0.0680387,-0.0954866,-0.0369251
397276,-0.000244141,-0.000976562,0.999756,0.0680387,-0.187039,-0.0064075
397296,-0.000488281,-0.000732422,0.999512,0.0985563,0.0265837,-0.220031
397306,-0.000732422,-0.000732422,0.999023,0.0680387,-0.0649691,-0.0979602
397316,-0.000732422,-0.000976562,0.998779,0.0985563,-0.156522,-0.0064075
397326,-0.000488281,-0.000976562,0.998779,0.00700355,-0.0649691,-0.0064075
397336,-0.000244141,-0.0012207,0.999268,-0.0540316,-0.156522,-0.0674427
397346,-0.000244141,-0.00146484,0.999023,0.0680387,-0.187039,-0.0979602
397356,-0.000488281,-0.0012207,0.999268,0.0680387,0.0265837,-0.0674427
397366,-0.000732422,-0.000976562,0.999512,-0.145584,-0.187039,-0.189513
397376,-0.000732422,-0.00146484,1.00049,0.251144,-0.0954866,-0.220031
397386,-0.000244141,-0.00170898,1.00122,0.0375211,-0.156522,-0.158995
397396,0,-0.0012207,1.00122,0.0680387,-0.187039,-0.0674427
397406,0,-0.0012207,1.00049,0.190109,-0.0649691,-0.0064075
397426,-0.000244141,-0.0012207,1.00049,-0.0540316,-0.156522,-0.128478
397436,0,-0.00146484,1.00049,0.129074,-0.126004,-0.220031
397446,-0.000488281,-0.00146484,1.00024,0.0375211,-0.126004,-0.0979602
397456,-0.000488281,-0.0012207,0.999756,0.220627,-0.0954866,-0.220031
397506,0,-0.000976562,0.999268,0.0680387,-0.0649691,-0.0979602
397546,-0.000976562,-0.0012207,0.999268,-0.176102,-0.0649691,-0.0674427
397586,-0.0012207,-0.00146484,0.999023,0.0680387,0.0265837,-0.158995
397626,-0.000488281,-0.000976562,0.999023,0.190109,-0.156522,0.0546277
397726,-0.000976562,-0.000732422,0.999023,0.129074,-0.0649691,0.0241101
397806,-0.000488281,-0.000732422,0.998047,0.00700355,0.0265837,-0.0979602
397826,-0.000976562,-0.000976562,0.998779,0.0680387,-0.156522,-0.250548
397916,-0.0012207,-0.000488281,0.999268,0.0985563,-0.00393391,-0.0674427
397936,-0.00170898,-0.0012207,1.00024,-0.0540316,-0.0649691,-0.0369251
397986,-0.000976562,-0.000732422,0.999756,0.0680387,-0.0954866,-0.250548
398026,-0.0012207,-0.000732422,0.998535,0.159591,-0.156522,-0.0674427
398116,-0.000976562,-0.000488281,0.999268,0.0375211,-0.0344515,-0.0979602
398136,-0.000976562,-0.000976562,0.999268,0.0985563,-0.0649691,-0.128478
398146,-0.000732422,-0.0012207,0.999023,0.129074,-0.00393391,-0.128478
398166,-0.000732422,-0.0012207,0.998779,0.220627,-0.0344515,-0.158995
398196,-0.000488281,-0.0012207,0.999023,0.129074,-0.126004,-0.189513
398206,-0.000244141,-0.00170898,0.999023,0.342697,-0.00393391,-0.0369251
398326,-0.0012207,-0.000732422,0.999268,0.129074,-0.0649691,-0.189513
398396,-0.000244141,-0.000732422,0.998535,0.0985563,-0.0344515,-0.0369251
398426,-0.000732422,-0.000244141,0.999756,0.159591,-0.0649691,-0.0979602
398466,-0.0012207,-0.000732422,0.998779,0.0680387,-0.126004,-0.128478
398476,-0.0012207,-0.000732422,0.998291,0.159591,-0.0954866,-0.0979602
398486,-0.000732422,-0.000976562,0.998047,-0.023514,-0.126004,-0.128478
398496,-0.000488281,-0.000976562,0.998291,0.0680387,-0.00393391,-0.0369251
398516,-0.000976562,-0.000976562,0.998535,0.00700355,0.0265837,-0.0674427
398526,-0.000732422,-0.000732422,0.999023,0.0680387,-0.126004,-0.220031
398536,-0.000732422,-0.000976562,0.999512,0.00700355,-0.0954866,-0.158995
398546,-0.000732422,-0.000976562,0.999268,0.0680387,-0.0954866,0.0241101
398556,-0.000732422,-0.000976562,0.999512,0.0985563,-0.187039,-0.0979602
398566,-0.000976562,-0.0012207,0.998779,0.0375211,0.0571012,0.0241101
398576,-0.0012207,-0.0012207,0.999023,0.129074,-0.00393391,0.0241101
398586,-0.000732422,-0.00146484,0.999023,0.00700355,-0.126004,-0.0674427
398606,-0.000976562,-0.00146484,0.999512,0.190109,-0.217557,-0.0064075
398616,-0.000732422,-0.0012207,1.00024,0.129074,-0.278592,0.0241101
398626,-0.000732422,-0.000976562,1.00049,-0.115067,-0.00393391,-0.0674427
398636,-0.000976562,-0.0012207,1.00073,0.0375211,-0.156522,-0.0369251
398646,-0.000976562,-0.0012207,0.999268,0.0375211,-0.156522,-0.189513
398656,-0.000976562,-0.0012207,0.999268,0.159591,-0.0649691,-0.0979602
398666,-0.0012207,-0.00146484,0.999512,-0.0540316,-0.0649691,-0.128478
398676,-0.000732422,-0.000732422,0.999512,0.00700355,-0.0649691,-0.0674427
398686,-0.000732422,-0.0012207,0.999023,0.129074,-0.0954866,-0.0369251
398696,-0.000488281,-0.000976562,0.998779,0.0375211,0.0265837,-0.0674427
398706,-0.000976562,-0.000976562,0.999268,0.0985563,-0.0649691,-0.158995
398726,-0.000976562,-0.000976562,0.998535,-0.023514,-0.187039,-0.128478
398736,-0.000976562,-0.000732422,0.999023,-0.0540316,-0.217557,-0.0369251
398766,-0.000732422,-0.00146484,0.999268,0.0375211,-0.0649691,-0.220031
398826,-0.000244141,-0.00146484,0.998047,0.0680387,-0.0344515,-0.220031
398846,-0.000244141,-0.0012207,0.998047,-0.115067,-0.187039,-0.0979602
398856,-0.000488281,-0.0012207,0.998047,0.159591,-0.156522,-0.0369251
398866,-0.000244141,-0.00146484,0.998779,0.0985563,-0.00393391,-0.0064075
398876,-0.000244141,-0.000976562,0.998779,-0.0540316,-0.0954866,-0.128478
398906,-0.000488281,-0.00146484,0.998535,0.0680387,-0.248075,-0.189513
398986,-0.000488281,-0.000976562,0.999023,0.0985563,-0.0954866,-0.0369251
399126,-0.000488281,-0.0012207,0.999512,-0.023514,-0.278592,0.0241101
399206,-0.000976562,-0.0012207,0.999268,0.0680387,-0.0954866,-0.128478
399256,-0.000488281,-0.00170898,0.999023,-0.0845492,-0.0954866,-0.128478
399266,-0.000732422,-0.00170898,0.998535,0.129074,-0.126004,-0.0979602
399296,-0.000732422,-0.00146484,0.999512,0.0375211,-0.0649691,-0.281066
399386,-0.000488281,-0.0012207,0.999268,0.129074,-0.156522,-0.0674427
399396,-0.000732422,-0.0012207,0.999268,0.0375211,-0.00393391,-0.189513
399406,-0.000488281,-0.00146484,0.999756,0.0680387,0.0265837,-0.0064075
399426,-0.000244141,-0.00146484,0.999756,0.0985563,-0.0954866,-0.0979602
399446,-0.000488281,-0.0012207,0.999512,0.190109,-0.126004,-0.0979602
399466,-0.000732422,-0.00146484,1,0.0375211,-0.156522,0.0241101
399496,-0.000488281,-0.00146484,1.00024,0.0985563,-0.217557,-0.189513
399576,-0.000976562,-0.0012207,1,0.0680387,-0.187039,-0.128478
399596,-0.0012207,-0.00146484,0.999512,0.0680387,-0.0954866,-0.220031
399606,-0.000976562,-0.00170898,0.999756,0.00700355,-0.0954866,-0.128478
399666,-0.000976562,-0.000732422,0.999756,-0.023514,-0.0954866,-0.128478
399696,-0.000732422,-0.000732422,0.998291,0.0680387,-0.126004,-0.158995
399726,-0.000244141,-0.000976562,0.999512,-0.0845492,-0.187039,-0.220031
399766,-0.000976562,-0.00146484,0.999756,0.129074,0.0265837,-0.158995
399786,-0.000732422,-0.000976562,0.999023,0.129074,-0.00393391,-0.0674427
399796,-0.000976562,-0.000976562,0.999023,0.0985563,-0.00393391,-0.158995
399806,-0.0012207,-0.000976562,0.998779,0.159591,-0.0649691,-0.0979602
399836,-0.0012207,-0.0012207,0.998047,0.0680387,-0.0954866,-0.0979602
399846,-0.000976562,-0.0012207,0.997803,0.129074,-0.187039,-0.189513
399856,-0.0012207,-0.000976562,0.998535,-0.0540316,-0.0954866,-0.128478
399866,-0.000976562,-0.000732422,0.998291,-0.0845492,-0.217557,-0.0064075
399876,-0.000976562,-0.000976562,0.998779,0.0985563,-0.0344515,-0.128478
399886,-0.000976562,-0.000976562,0.998779,0.0985563,-0.0344515,-0.128478
399896,-0.000732422,-0.0012207,0.998779,0.0680387,-0.0954866,-0.220031
399916,-0.000976562,-0.000976562,0.998535,0.00700355,-0.0649691,-0.281066
399946,-0.00146484,-0.000976562,0.999268,0.220627,-0.0954866,-0.0674427
399956,-0.0012207,-0.000976562,0.999268,0.159591,-0.0649691,-0.189513
399966,-0.000976562,-0.000488281,0.999512,-0.023514,-0.0649691,0.0241101
399976,-0.000976562,-0.000732422,0.998535,0.0375211,-0.278592,-0.220031
399986,-0.000976562,-0.000732422,0.998779,-0.023514,-0.187039,-0.0674427
400026,-0.0012207,-0.000976562,0.999023,-0.0540316,-0.00393391,-0.158995
400046,-0.000732422,-0.000732422,0.999268,0.00700355,-0.0344515,-0.0064075
400066,-0.0012207,-0.000976562,0.999023,0.0680387,-0.187039,-0.0979602
400076,-0.000976562,-0.000976562,0.998535,0.0680387,0.0265837,-0.128478
400106,-0.000488281,-0.00146484,0.999512,0.0680387,-0.0649691,-0.0674427
400166,-0.00146484,-0.0012207,0.998779,0.00700355,-0.0954866,-0.0674427
400176,-0.0012207,-0.00146484,0.998535,0.00700355,-0.0954866,-0.281066
400186,-0.000732422,-0.000732422,0.998535,0.159591,-0.0344515,-0.220031
400256,-0.00146484,-0.000732422,0.999023,0.0985563,-0.0344515,-0.158995
400286,-0.000976562,-0.000976562,0.998779,0.0375211,-0.156522,-0.0369251
400296,-0.0012207,-0.000976562,0.999268,0.0375211,-0.370145,-0.220031
400416,-0.000244141,-0.00170898,0.999268,0.0680387,-0.217557,-0.189513
400436,-0.000488281,-0.00170898,0.999023,0.129074,-0.0954866,-0.0369251
400466,-0.000976562,-0.00170898,0.998779,0.129074,-0.126004,-0.0369251
400486,-0.000488281,-0.0012207,0.999268,0.159591,-0.0344515,-0.158995
400506,-0.000732422,-0.000732422,0.999512,-0.145584,-0.156522,-0.0979602
400596,-0.00146484,-0.000976562,0.998535,0.0680387,-0.00393391,-0.128478
400686,-0.000488281,-0.000976562,0.999512,0.0985563,-0.126004,0.0546277
400726,-0.0012207,-0.000732422,0.999512,-0.023514,0.0265837,-0.0674427
400776,-0.0012207,-0.000976562,0.998291,0.190109,-0.156522,-0.158995
400836,0,-0.000244141,0.998291,0.0985563,-0.0954866,-0.0064075
400856,-0.000244141,-0.000976562,0.998535,0.00700355,-0.0954866,-0.0674427
400886,-0.000732422,-0.000732422,0.999023,0.190109,-0.0649691,-0.189513
400926,-0.000976562,-0.0012207,0.999512,0.00700355,-0.126004,-0.158995
400966,-0.00146484,-0.000244141,0.999756,0.0680387,-0.156522,-0.0369251
400986,-0.000732422,-0.000732422,0.999512,0.0985563,0.0265837,-0.0674427
401016,-0.0012207,-0.000488281,0.999512,0.129074,-0.126004,-0.0369251
401056,-0.000976562,-0.000488281,0.999756,0.00700355,-0.187039,-0.0369251
401066,-0.000976562,-0.000732422,0.999023,0.00700355,-0.156522,-0.0674427
401086,-0.000732422,-0.000488281,0.999756,0.00700355,-0.156522,-0.158995
401096,-0.000976562,-0.000732422,0.999268,-0.0845492,-0.126004,-0.220031
401106,-0.000976562,-0.000488281,0.999512,0.0680387,-0.187039,-0.0979602
401116,-0.000976562,-0.000732422,0.999756,-0.023514,-0.156522,-0.0369251
401136,-0.000976562,-0.0012207,0.999512,0.0680387,-0.0344515,-0.0064075
401146,-0.000732422,-0.000732422,0.999512,0.281662,-0.00393391,-0.158995
401156,-0.000732422,-0.000488281,0.999512,0.0375211,-0.126004,-0.0064075
401166,-0.000488281,-0.000732422,0.999023,0.281662,-0.0954866,-0.128478
401176,-0.000732422,-0.000976562,0.998535,0.0680387,-0.0649691,-0.189513
401186,-0.000732422,-0.000976562,0.998535,0.0375211,0.0876188,-0.0369251
401206,-0.000732422,-0.000732422,0.998535,0.0985563,-0.187039,-0.0064075
401216,-0.000488281,-0.000488281,0.999023,-0.0845492,-0.0649691,-0.0369251
401226,-0.000488281,-0.000976562,0.998535,-0.023514,-0.217557,0.0851452
401236,-0.000732422,-0.000488281,0.999023,-0.023514,-0.0954866,0.0546277
401246,-0.000976562,-0.000488281,0.999023,-0.0540316,-0.0649691,-0.189513
401256,-0.000976562,-0.000244141,0.999023,0.129074,-0.0649691,-0.0979602
401276,-0.000732422,-0.000244141,1,0.0985563,-0.0954866,-0.128478
401306,-0.000732422,-0.000488281,1,-0.0540316,-0.156522,-0.250548
401316,-0.000244141,-0.000976562,0.999268,-0.023514,-0.126004,-0.128478
401336,-0.000244141,-0.000976562,0.999023,0.0985563,-0.187039,-0.189513
401406,-0.000488281,-0.0012207,0.998779,-0.023514,-0.156522,-0.128478
401426,-0.000244141,-0.0012207,0.999512,0.251144,-0.0344515,0.0851452
401456,-0.000488281,-0.000976562,0.998535,0.129074,0.0265837,-0.0674427
401496,-0.000732422,-0.000488281,0.998779,-0.0540316,-0.248075,-0.0369251
401576,-0.000488281,-0.000976562,0.999512,-0.0845492,-0.0649691,0.0241101
401586,-0.000732422,-0.000732422,0.999023,0.0375211,-0.126004,-0.128478
402136,0.000244141,-0.000732422,0.999512,0.0985563,-0.126004,-0.0674427
402176,0,-0.000732422,0.999023,0.0375211,-0.126004,-0.311583
402216,-0.000976562,-0.000244141,0.998047,0.159591,-0.0954866,-0.128478
402266,0,-0.000976562,0.997803,0.0680387,-0.0344515,-0.189513
402296,-0.000244141,-0.000244141,0.998779,-0.0540316,-0.278592,-0.220031
402316,-0.000732422,0,0.998291,0.0375211,-0.126004,0.0546277
402356,-0.000976562,-0.000732422,0.998779,0.0985563,-0.156522,-0.0979602
402376,-0.000976562,-0.000488281,0.999512,-0.023514,-0.187039,0.0546277
402386,-0.000976562,-0.000488281,0.999512,0.0375211,-0.0344515,-0.0369251
402396,-0.000976562,-0.000488281,0.999268,0.00700355,-0.0344515,-0.0979602
402406,-0.000732422,-0.000732422,0.998779,0.0375211,-0.0954866,-0.158995
402416,-0.000244141,-0.000732422,0.998047,0.159591,0.0571012,-0.0979602
402426,-0.000488281,-0.000732422,0.998291,0.0985563,0.0265837,-0.0064075
402436,-0.000244141,-0.000976562,0.998779,0.0375211,-0.00393391,-0.0674427
402446,-0.000488281,-0.000976562,0.999512,0.0375211,-0.0344515,-0.0369251
402456,-0.000976562,-0.000976562,0.999268,0.0375211,-0.278592,-0.128478
402466,-0.000732422,-0.000732422,0.999268,-0.023514,-0.0649691,-0.0674427
402476,-0.000732422,-0.000732422,0.999512,0.00700355,-0.0649691,-0.220031
402486,-0.000732422,-0.000732422,0.999756,0.0375211,-0.0954866,-0.128478
402506,-0.000488281,-0.000732422,0.999512,0.0680387,-0.0344515,0.0241101
402516,-0.000488281,-0.000732422,0.999512,-0.0540316,-0.0954866,-0.128478
402526,-0.000488281,-0.000732422,0.999268,0.00700355,-0.126004,-0.281066
402536,-0.000488281,-0.000732422,0.998535,0.00700355,-0.126004,-0.220031
402546,-0.000244141,-0.000732422,0.998535,0.0375211,-0.0649691,-0.220031
402556,-0.000244141,-0.000976562,0.998535,-0.0540316,-0.0649691,-0.158995
402566,0,-0.000976562,0.998779,0.0375211,-0.0649691,-0.0064075
402576,-0.000244141,-0.000976562,0.999023,0.0985563,-0.00393391,0.0241101
402586,0,-0.000732422,0.999023,0.0375211,-0.00393391,-0.0674427
402596,-0.000488281,-0.000976562,0.998779,-0.0540316,-0.156522,-0.0369251
402606,0,-0.000976562,0.998779,0.0375211,-0.156522,-0.158995
402626,-0.000244141,-0.0012207,0.998779,0.129074,-0.248075,-0.0979602
402636,-0.000732422,-0.000488281,0.999268,0.0375211,-0.00393391,-0.0674427
402646,-0.000976562,-0.000488281,0.998779,0.0985563,0.0265837,-0.0979602
402686,-0.000732422,-0.000732422,0.999023,0.0375211,-0.126004,-0.0979602
402726,-0.000732422,-0.000976562,0.998291,0.129074,-0.0954866,0.0546277
402756,-0.000488281,-0.000976562,0.998535,-0.023514,-0.00393391,-0.0674427
402766,-0.000732422,-0.000732422,0.998779,0.0680387,-0.0954866,-0.128478
402776,-0.000488281,-0.000976562,0.998535,0.0375211,-0.156522,-0.0369251
402806,-0.000976562,-0.000732422,0.997803,0.0375211,-0.0954866,0.0851452
402886,-0.000976562,-0.000732422,0.998535,0.0680387,0.0571012,-0.0674427
403016,-0.000976562,-0.000732422,0.998535,-0.023514,0.0571012,-0.128478
403136,0,-0.000976562,1,0.0375211,-0.126004,-0.0674427
403166,-0.000732422,-0.000732422,0.998779,0.159591,-0.126004,-0.158995
403196,-0.000732422,-0.000732422,0.998047,0.0680387,-0.0344515,-0.220031
403226,-0.000976562,-0.0012207,0.998779,0.129074,-0.156522,-0.220031
403256,-0.000244141,-0.00146484,0.999268,-0.0540316,-0.00393391,-0.128478
403346,-0.000488281,0,0.998779,-0.0845492,-0.0344515,-0.0674427
403366,-0.000244141,-0.000732422,0.998779,-0.023514,0.0265837,-0.0979602
403376,-0.000488281,-0.000732422,0.998779,0.0985563,-0.00393391,-0.189513
403386,-0.000488281,-0.000488281,0.998047,0.0985563,-0.217557,0.0241101
403416,-0.000488281,-0.000976562,0.998047,0.0985563,-0.126004,-0.128478
403456,-0.0012207,-0.00146484,0.998291,0.159591,-0.0649691,-0.189513
403476,-0.00146484,-0.00170898,0.998779,0.159591,-0.0954866,-0.189513
403496,-0.00146484,-0.0012207,0.998535,0.251144,-0.126004,-0.189513
403526,-0.000244141,-0.000732422,0.998535,0.190109,-0.0954866,-0.0674427
403656,0,-0.000976562,0.999512,0.0985563,-0.0344515,-0.220031
403676,-0.000488281,-0.0012207,0.998535,-0.0845492,-0.0649691,-0.158995
403686,-0.000488281,-0.000976562,0.998535,0.00700355,-0.0954866,0.0546277
403696,-0.000488281,-0.000976562,0.997559,0.0985563,-0.0954866,-0.128478
403736,-0.000732422,-0.000488281,0.998535,0.129074,-0.126004,-0.128478
403776,-0.000244141,-0.000732422,0.998047,0.0375211,-0.187039,-0.0369251
403786,-0.000732422,-0.000732422,0.999756,0.00700355,-0.126004,-0.0674427
403796,-0.000732422,-0.000488281,0.999512,0.159591,-0.187039,0.0546277
403806,-0.000488281,-0.000732422,0.999268,0.0985563,-0.0954866,-0.0369251
403816,-0.000732422,-0.000488281,0.998779,0.0375211,-0.00393391,-0.158995
403826,-0.000244141,-0.000488281,0.998535,0.0985563,-0.126004,-0.189513
403836,-0.000244141,-0.000732422,0.999023,0.0985563,-0.0954866,-0.0064075
403846,-0.000488281,-0.000976562,0.998779,0.0680387,-0.00393391,-0.0369251
403856,-0.000244141,-0.000976562,0.999023,-0.0540316,-0.0954866,-0.158995
403866,-0.000732422,-0.0012207,0.999023,0.0375211,-0.0649691,-0.0674427
403876,-0.000976562,-0.0012207,0.999023,0.0375211,-0.0954866,-0.158995
403886,-0.000976562,-0.00146484,0.998047,0.0680387,-0.126004,-0.128478
403896,-0.000488281,-0.0012207,0.997559,-0.023514,0.0876188,-0.0979602
403916,-0.000976562,-0.00170898,0.997803,0.159591,-0.0344515,-0.0064075
403936,-0.000732422,-0.0012207,0.998047,0.0985563,-0.0344515,-0.158995
403956,-0.000732422,-0.0012207,0.998291,0.159591,-0.156522,-0.0674427
403966,-0.000488281,-0.00146484,0.998047,0.0680387,0.0265837,-0.128478
403976,-0.000244141,-0.0012207,0.997803,0.159591,-0.126004,-0.189513
403986,-0.000488281,-0.000976562,0.998047,0.0375211,-0.0954866,-0.128478
404066,-0.000732422,-0.000976562,0.998291,0.190109,-0.0344515,0.0241101
404076,-0.000732422,-0.000488281,0.998291,0.0985563,-0.217557,-0.0369251
404086,-0.000488281,-0.000488281,0.998047,0.129074,-0.0344515,-0.0369251
404116,-0.000488281,-0.000488281,0.997803,0.0375211,-0.156522,-0.0674427
404156,-0.000488281,-0.000976562,0.997803,0.0680387,0.0876188,0.0241101
404196,-0.000976562,-0.000488281,0.998779,0.190109,-0.0649691,-0.0979602
404276,-0.000732422,-0.000976562,0.998779,0.129074,-0.0649691,-0.0369251
404306,-0.000488281,-0.000976562,0.997559,0.0680387,-0.0954866,-0.189513
404416,-0.0012207,-0.0012207,0.999756,0.190109,0.0876188,-0.0064075
404476,-0.000976562,-0.00146484,0.999268,0.190109,0.0571012,-0.0064075
404506,-0.0012207,-0.000976562,0.999023,0.00700355,-0.0344515,-0.158995
404586,-0.000488281,-0.000732422,0.997803,0.00700355,-0.126004,0.0851452
404806,-0.0012207,-0.000976562,0.999268,0.129074,-0.0954866,-0.128478
404846,-0.000732422,-0.000732422,0.998047,0.0375211,-0.0954866,-0.158995
404936,-0.000488281,-0.000732422,0.997803,0.129074,-0.0649691,-0.0674427
404946,-0.000732422,-0.000488281,0.997803,0.00700355,-0.0954866,-0.0674427
404976,-0.000732422,-0.00170898,0.998779,0.0375211,-0.156522,-0.158995
404986,-0.000244141,-0.00170898,0.998779,0.0985563,-0.217557,-0.128478
404996,-0.000488281,-0.00146484,0.998779,0.00700355,-0.0954866,-0.0674427
405006,-0.000244141,-0.00146484,0.999023,0.159591,-0.187039,-0.0064075
405036,-0.000244141,-0.00195312,0.998779,0.00700355,-0.0344515,-0.0369251
405066,-0.000244141,-0.00146484,0.998779,0.0985563,-0.00393391,0.0851452
405076,-0.000244141,-0.00146484,0.998779,0.00700355,-0.126004,-0.0674427
405086,0,-0.0012207,0.999023,0.0375211,-0.156522,-0.158995
405096,-0.000244141,-0.00146484,0.998535,0.220627,-0.187039,-0.0369251
405106,-0.000488281,-0.00195312,0.998535,-0.023514,0.0876188,-0.189513
405116,-0.0012207,-0.0012207,0.998779,-0.023514,-0.187039,-0.0674427
405126,-0.000976562,-0.0012207,0.999023,0.129074,-0.0954866,-0.0064075
405136,-0.000732422,-0.0012207,0.999268,0.0985563,-0.217557,-0.0369251
405146,-0.000488281,-0.0012207,0.999268,0.129074,-0.0344515,-0.158995
405156,-0.000244141,-0.0012207,0.999512,0.0985563,-0.126004,-0.158995
405166,-0.000488281,-0.00170898,1.00024,0.0680387,-0.156522,-0.189513
405176,-0.000976562,-0.00170898,1.00024,0.00700355,-0.187039,-0.220031
405186,-0.000976562,-0.00146484,1.00049,0.0985563,-0.126004,-0.128478
405196,-0.000732422,-0.0012207,0.999512,-0.023514,-0.0649691,-0.250548
405206,-0.000488281,-0.00146484,0.999512,0.0985563,-0.0954866,-0.158995
405216,-0.000976562,-0.000732422,0.999512,0.0680387,-0.217557,-0.128478
405226,-0.0012207,-0.000244141,0.998779,0.00700355,-0.126004,-0.0979602
405246,-0.000732422,-0.000488281,0.998535,0.00700355,-0.187039,-0.158995
405256,-0.000732422,-0.000244141,0.998779,0.129074,0.0265837,-0.128478
405266,-0.000732422,-0.000244141,0.999512,0.129074,-0.0649691,-0.158995
405316,-0.000732422,-0.000732422,0.999023,0.220627,0.0265837,-0.189513
405456,0,-0.000732422,0.999023,0.0375211,-0.0344515,-0.189513
405806,-0.0012207,-0.000488281,0.998291,-0.0540316,-0.126004,-0.0369251
405876,-0.000244141,-0.00146484,0.998779,0.0375211,-0.0954866,-0.189513
405966,0,-0.00170898,0.998047,0.0375211,-0.0954866,-0.158995
405996,-0.000244141,-0.000732422,0.997803,0.00700355,-0.126004,-0.0369251
406066,-0.000488281,-0.000488281,0.998779,0.0680387,-0.187039,-0.128478
406086,-0.000976562,-0.000976562,0.998779,0.0680387,-0.126004,-0.311583
406126,-0.000488281,-0.000976562,0.999023,0.0375211,-0.0344515,0.0241101
406146,0,-0.000976562,0.998535,0.129074,-0.0954866,-0.0674427
406276,-0.000488281,-0.000976562,0.999023,0.220627,0.0571012,-0.128478
406286,-0.000488281,-0.000976562,0.999268,-0.023514,-0.156522,-0.128478
406296,-0.000244141,-0.0012207,0.999268,0.129074,-0.0649691,-0.128478
406316,-0.000732422,-0.000976562,0.999268,-0.0540316,-0.187039,-0.128478
406346,-0.000732422,-0.000488281,0.998779,-0.0845492,0.0265837,-0.0979602
406416,-0.000488281,-0.000976562,0.997559,0.0985563,-0.126004,-0.220031
406426,-0.000244141,-0.000732422,0.998047,0.0680387,-0.0649691,-0.0369251
406436,-0.000244141,-0.000732422,0.998291,0.0375211,-0.0344515,-0.0064075
406446,-0.000244141,-0.000488281,0.998779,0.190109,-0.278592,-0.128478
406466,-0.000244141,-0.000732422,0.998291,0.190109,-0.156522,-0.0979602
406476,-0.000244141,-0.000732422,0.998291,-0.0540316,-0.156522,-0.128478
406486,-0.000488281,-0.000488281,0.998779,0.0375211,-0.0954866,-0.0369251
406496,-0.000488281,-0.000488281,0.998291,-0.0845492,-0.00393391,-0.0674427
406506,-0.000244141,-0.000488281,0.998779,0.0680387,-0.0649691,-0.189513
406536,0,-0.000488281,0.999023,-0.023514,-0.0954866,-0.189513
406546,-0.000244141,-0.000488281,0.999023,-0.0540316,-0.126004,-0.158995
406566,-0.000488281,-0.0012207,0.998535,-0.023514,-0.156522,-0.0064075
406576,-0.000732422,-0.000976562,0.999268,0.129074,-0.126004,-0.0064075
406606,-0.000244141,-0.000976562,0.998047,0.0680387,-0.248075,-0.189513
406616,-0.000244141,-0.000732422,0.998047,0.159591,0.0876188,-0.158995
406626,0,-0.000976562,0.998535,0.0375211,-0.0954866,0.0241101
406636,0,-0.000488281,0.998291,0.0680387,-0.217557,-0.0979602
406666,-0.000244141,-0.000732422,0.998779,0.0985563,-0.126004,0.0241101
406696,-0.000488281,-0.000732422,0.998047,0.0985563,-0.156522,-0.128478
406756,-0.000732422,-0.000732422,0.999756,0.0985563,-0.0649691,-0.0979602
406786,-0.000732422,-0.00146484,0.997559,-0.023514,-0.217557,-0.189513
406856,0,-0.000488281,0.998047,0.0375211,-0.187039,-0.0369251
406966,-0.000976562,-0.000488281,0.999512,0.00700355,-0.0649691,-0.0979602
407046,-0.000732422,-0.000488281,0.999268,0.159591,-0.00393391,-0.0064075
407086,-0.000244141,-0.000976562,0.998779,0.00700355,-0.156522,-0.0369251
407136,-0.000244141,-0.00146484,0.997803,0.0680387,-0.0344515,-0.0979602
407176,-0.000488281,-0.00146484,0.998535,0.159591,-0.00393391,-0.0979602
407306,-0.0012207,-0.000976562,0.999023,0.0680387,-0.0649691,-0.189513
407356,-0.000488281,-0.000976562,0.998779,0.129074,-0.0344515,-0.220031
407366,-0.000488281,-0.000976562,0.998291,0.0985563,-0.0344515,-0.0674427
407386,-0.000244141,-0.000732422,0.998535,0.00700355,-0.126004,0.0241101
407396,-0.000244141,-0.000976562,0.998047,0.0985563,-0.0954866,-0.158995
407416,-0.000488281,-0.0012207,0.998291,0.0680387,-0.00393391,-0.0369251
407426,-0.000732422,-0.00146484,0.998779,0.00700355,-0.0649691,-0.158995
407466,-0.000488281,-0.00146484,0.998047,0.0680387,0.0571012,0.115663
407496,-0.000244141,-0.000488281,0.998535,-0.0540316,-0.156522,-0.0674427
407516,-0.000732422,-0.000732422,0.999023,0.0375211,-0.156522,-0.0369251
407526,-0.000488281,-0.000732422,0.999023,-0.0540316,-0.248075,-0.0674427
407556,-0.000488281,-0.000976562,0.999023,0.0680387,-0.126004,-0.220031
407566,-0.000488281,-0.000732422,0.998779,0.00700355,-0.0954866,-0.220031
407586,-0.000244141,-0.000976562,0.997314,-0.0540316,-0.0649691,-0.0369251
407596,0,-0.000488281,0.997559,0.00700355,-0.187039,-0.158995
407616,0.000244141,-0.000488281,0.998535,0.159591,-0.156522,-0.0674427
407656,-0.000244141,-0.000976562,0.997803,0.190109,-0.156522,-0.128478
407696,-0.000244141,-0.000976562,0.998291,-0.0540316,-0.0954866,-0.128478
407716,-0.000488281,-0.000976562,0.998535,-0.0540316,0.0571012,-0.0369251
407726,-0.000976562,-0.000976562,0.999268,0.00700355,-0.00393391,-0.281066
407736,-0.000732422,-0.000732422,0.999023,0.00700355,-0.126004,-0.0674427
407746,-0.0012207,-0.000732422,0.999512,-0.023514,-0.00393391,-0.128478
407756,-0.0012207,-0.000976562,0.998779,0.220627,-0.0344515,-0.0369251
407766,-0.0012207,-0.000976562,0.998779,0.0985563,-0.126004,-0.0979602
407776,-0.000732422,-0.0012207,0.999023,-0.023514,-0.126004,0.0241101
407796,-0.000732422,-0.0012207,0.999756,0.129074,-0.0649691,-0.0369251
407806,-0.000732422,-0.0012207,0.999268,0.00700355,-0.0649691,-0.158995
407816,-0.000488281,-0.0012207,0.999023,0.129074,-0.126004,-0.0369251
407826,0,-0.00146484,0.998047,0.0985563,0.0265837,-0.0674427
407866,0.000244141,-0.000732422,0.997803,-0.023514,-0.00393391,-0.220031
407876,0.000244141,-0.000976562,0.997803,0.0680387,-0.217557,-0.0979602
407886,0,-0.000976562,0.997803,0.00700355,-0.0344515,-0.0369251
407896,0.000244141,-0.000732422,0.997559,0.0680387,-0.0344515,-0.250548
407906,0.000244141,-0.0012207,0.998291,0.0985563,-0.126004,-0.128478
407916,0.000244141,-0.000976562,0.998291,0.129074,-0.278592,-0.189513
407926,0.000244141,-0.000976562,0.998047,0.0375211,-0.187039,-0.250548
407936,0.000244141,-0.0012207,0.997559,0.159591,-0.217557,-0.128478
407946,0.000244141,-0.0012207,0.997559,0.00700355,-0.0344515,-0.128478
407966,-0.000244141,-0.000976562,0.997803,-0.023514,-0.156522,-0.158995
407976,-0.000488281,-0.000976562,0.998291,0.129074,-0.217557,-0.158995
407986,-0.000488281,-0.000732422,0.998779,0.0985563,-0.156522,-0.0674427
408036,-0.000732422,-0.000488281,0.998291,0.129074,-0.217557,0.0546277
408066,-0.000732422,-0.000976562,0.998535,0.0375211,-0.0344515,-0.128478
408096,-0.000244141,-0.000976562,0.998291,0.129074,-0.0344515,0.0241101
408106,-0.000244141,-0.0012207,0.998047,-0.0540316,-0.126004,-0.158995
408116,-0.000488281,-0.0012207,0.998291,0.129074,-0.0344515,-0.0369251
408226,-0.000244141,-0.0012207,0.998535,0.0375211,-0.248075,-0.189513
408346,0,-0.0012207,0.998047,0.00700355,-0.0649691,-0.0369251
408416,-0.000244141,-0.000976562,0.997803,0.0985563,-0.248075,-0.189513
408506,-0.000244141,-0.000976562,0.998535,0.0680387,-0.156522,0.0546277
408576,0.000244141,-0.000732422,0.998535,-0.023514,0.0265837,-0.0369251
408686,-0.000244141,-0.00146484,0.998047,0.00700355,-0.187039,-0.220031
408716,-0.000976562,-0.0012207,0.998535,0.159591,-0.0649691,-0.0064075
408736,-0.000732422,-0.0012207,0.998047,-0.023514,-0.0344515,-0.250548
408836,-0.000732422,-0.000488281,0.998291,0.0375211,-0.217557,-0.189513
408856,-0.000488281,-0.000732422,0.998535,0.159591,-0.217557,-0.220031
408906,-0.000244141,-0.0012207,0.999268,-0.023514,-0.0954866,-0.128478
408916,-0.000244141,-0.0012207,0.999023,0.0985563,-0.126004,-0.0369251
408926,0.000244141,-0.0012207,0.999023,0.0680387,-0.0344515,-0.0369251
408946,0.000244141,-0.00146484,0.998779,0.129074,-0.156522,-0.0369251
408976,-0.000244141,-0.00146484,0.998291,0.129074,-0.126004,-0.189513
408986,-0.000244141,-0.0012207,0.998047,0.0375211,-0.0954866,-0.0064075
409006,-0.000244141,-0.00146484,0.998291,0.0680387,-0.0649691,-0.0369251
409016,-0.000488281,-0.0012207,0.998291,0.0375211,-0.187039,-0.128478
409026,-0.000488281,-0.0012207,0.998535,0.159591,-0.187039,-0.158995
409036,-0.000488281,-0.0012207,0.999023,0.129074,-0.0954866,-0.128478
409046,-0.000244141,-0.0012207,0.998779,0.159591,-0.0649691,0.115663
409056,0,-0.0012207,0.998535,0.0680387,-0.0954866,-0.189513
409066,-0.000244141,-0.000976562,0.998779,0.0375211,-0.126004,-0.0674427
409076,-0.000244141,-0.000976562,0.998291,0.0680387,-0.187039,-0.0369251
409086,-0.000244141,-0.000976562,0.998047,0.129074,0.0571012,-0.0979602
409096,-0.000488281,-0.000976562,0.998291,0.00700355,-0.126004,-0.250548
409106,-0.000244141,-0.000976562,0.998535,0.0985563,-0.0954866,-0.220031
409116,-0.000244141,-0.000976562,0.998291,0.312179,-0.126004,0.0851452
409126,-0.000488281,-0.0012207,0.997803,0.159591,-0.0954866,-0.0674427
409136,-0.000488281,-0.000976562,0.998779,0.159591,-0.0954866,-0.0979602
409146,-0.000732422,-0.000976562,0.998535,0.0680387,-0.156522,-0.0674427
409156,-0.000732422,-0.000976562,0.998779,0.251144,-0.217557,-0.0979602
409176,-0.0012207,-0.000732422,0.997803,0.220627,-0.126004,-0.0979602
409186,-0.000976562,-0.000976562,0.998047,0.0985563,-0.217557,-0.158995
409346,-0.000732422,-0.00146484,0.998535,0.0375211,-0.0954866,-0.0979602
409396,-0.000732422,-0.00146484,0.997803,0.129074,-0.126004,-0.158995
409496,-0.000488281,-0.0012207,0.998291,0.0680387,-0.0649691,-0.0979602
409516,-0.000488281,-0.000976562,0.998047,0.0375211,-0.126004,-0.0979602
409646,0.000244141,-0.000732422,0.998779,0.0680387,-0.0344515,-0.0979602
409736,0,-0.000732422,0.998535,0.0680387,0.0265837,-0.0674427
409826,0,-0.0012207,0.997559,0.0680387,-0.126004,-0.158995
409936,-0.000244141,-0.00195312,0.997803,0.0985563,-0.00393391,-0.0674427
409956,-0.000244141,-0.00170898,0.998291,0.0680387,0.0265837,-0.128478
409986,0,-0.00146484,0.998779,0.159591,-0.0954866,-0.189513
410016,0,-0.00170898,0.999023,0.129074,-0.0954866,-0.0674427
410076,-0.000488281,-0.00170898,0.997803,0.159591,0.0265837,-0.250548
410136,-0.000244141,-0.000976562,0.997559,0.0680387,0.0265837,-0.0979602
410156,-0.000244141,-0.0012207,0.999023,-0.0540316,-0.156522,0.0241101
410176,0,-0.000976562,0.998047,0.0680387,-0.156522,-0.0064075
410186,-0.000244141,-0.000976562,0.997559,0.0680387,-0.187039,-0.220031
410206,-0.000244141,-0.000976562,0.997559,0.0680387,-0.0649691,-0.158995
410226,0,-0.0012207,0.997559,0.0375211,-0.0344515,-0.128478
410266,0,-0.000976562,0.997803,0.00700355,0.0265837,-0.0979602
410286,-0.000488281,-0.00146484,0.997314,0.0680387,-0.187039,-0.0674427
410296,-0.000488281,-0.0012207,0.997314,0.00700355,0.0265837,-0.128478
410306,-0.000244141,-0.0012207,0.997314,-0.0540316,-0.0954866,-0.0369251
410316,-0.000244141,-0.0012207,0.997559,-0.0540316,-0.278592,-0.0064075
410326,-0.000244141,-0.0012207,0.997559,0.0375211,-0.187039,-0.0674427
410336,-0.000488281,-0.000976562,0.998047,-0.0845492,-0.156522,-0.220031
410346,-0.000244141,-0.000976562,0.998047,0.0985563,-0.217557,-0.0369251
410356,-0.000244141,-0.00146484,0.998535,0.0985563,-0.0649691,-0.189513
410366,-0.000244141,-0.0012207,0.998535,0.0375211,-0.156522,-0.0674427
410376,-0.000244141,-0.0012207,0.998535,0.0375211,-0.156522,-0.0369251
410386,-0.000244141,-0.0012207,0.998291,0.0680387,-0.156522,-0.0979602
410396,-0.000244141,-0.0012207,0.998291,0.0375211,-0.187039,-0.0979602
410406,-0.000244141,-0.000976562,0.998535,0.0985563,-0.126004,-0.0979602
410426,-0.000488281,-0.000488281,0.997803,0.129074,-0.126004,-0.128478
410436,-0.000488281,-0.000244141,0.997803,-0.0540316,-0.0649691,-0.0674427
410446,-0.000488281,-0.000488281,0.997803,0.00700355,-0.0344515,-0.0979602
410456,-0.000488281,-0.000732422,0.998535,0.0375211,-0.126004,-0.0369251
410466,-0.000732422,-0.000732422,0.998047,0.0680387,-0.156522,0.0241101
410476,-0.000488281,-0.000732422,0.998291,0.00700355,-0.0954866,-0.0979602
410486,-0.000488281,-0.000976562,0.998291,0.159591,-0.126004,-0.311583
410516,-0.000488281,-0.000976562,0.998291,-0.023514,-0.0344515,-0.0064075
410526,-0.000488281,-0.0012207,0.998535,0.00700355,-0.187039,-0.158995
410546,-0.000488281,-0.000976562,0.999023,0.0375211,-0.0649691,-0.0674427
410556,-0.000244141,-0.00170898,0.998779,0.0375211,-0.00393391,-0.0674427
410606,-0.000244141,-0.00146484,0.998291,0.0985563,-0.00393391,-0.0674427
410646,-0.000732422,-0.00170898,0.998047,0.0680387,-0.248075,-0.0979602
410686,-0.000732422,-0.0012207,0.998535,-0.023514,-0.0954866,-0.128478
410716,-0.000244141,-0.00146484,0.998779,0.0375211,-0.156522,-0.0369251
410786,-0.000732422,-0.00146484,0.999268,-0.0540316,-0.0344515,-0.250548
410936,0,-0.000976562,0.99707,0.0375211,-0.217557,-0.281066
410986,0.000488281,-0.000976562,0.99707,0.0985563,-0.187039,0.0851452
411056,-0.000488281,-0.0012207,0.998779,0.129074,-0.126004,-0.0674427
411186,-0.000488281,-0.0012207,0.998047,0.0680387,-0.126004,-0.158995
411236,-0.000488281,-0.000976562,0.998047,0.129074,-0.156522,-0.0674427
411246,-0.000488281,-0.000976562,0.998291,-0.0540316,-0.30911,-0.0369251
411256,-0.000244141,-0.0012207,0.997803,-0.0540316,-0.187039,-0.189513
411276,0.000488281,-0.00146484,0.998291,0.190109,-0.156522,-0.0674427
411306,0,-0.000732422,0.999512,0.0680387,-0.217557,-0.189513
411316,0.000244141,-0.000732422,0.999512,-0.023514,-0.0344515,0.0546277
411366,0,-0.00146484,0.998779,0.0680387,-0.156522,-0.0369251
411376,-0.000488281,-0.00170898,0.998535,0.0985563,-0.0954866,-0.0979602
411396,-0.000732422,-0.0012207,0.998779,-0.023514,-0.126004,-0.281066
411416,-0.000488281,-0.000976562,0.998779,0.159591,-0.0954866,-0.0979602
411466,0.000244141,-0.0012207,0.998047,0.129074,-0.217557,-0.0064075
411486,-0.000244141,-0.00195312,0.996826,-0.0540316,-0.126004,-0.0064075
411506,-0.000244141,-0.00219727,0.997803,0.159591,-0.0954866,-0.158995
411516,0,-0.00170898,0.998047,0.0985563,-0.278592,-0.189513
411526,-0.000244141,-0.00170898,0.998047,0.0985563,-0.248075,-0.128478
411536,-0.000488281,-0.00146484,0.998291,0.159591,-0.126004,-0.0674427
411556,-0.000732422,-0.000976562,0.997803,0.0680387,-0.156522,-0.158995
411566,-0.000488281,-0.000732422,0.997803,0.0680387,-0.0954866,-0.0369251
411586,-0.000488281,-0.000488281,0.999268,0.159591,0.0571012,-0.0369251
411596,-0.000244141,-0.000488281,0.999023,0.129074,-0.00393391,-0.250548
411606,-0.000244141,-0.000488281,0.999023,0.0985563,-0.126004,-0.128478
