t,accx,accy,accz,gyrox,gyroy,gyroz
431963,-0.00683594,-0.00463867,0.998779,0.112027,0.167131,0.131637
431983,-0.00708008,-0.00463867,0.998779,0.0204742,0.136614,0.131637
432023,-0.00683594,-0.00463867,0.999023,0.112027,-0.015974,0.0706017
432033,-0.00683594,-0.00463867,0.999268,0.112027,0.0145435,0.0400841
432043,-0.0065918,-0.00439453,0.999023,0.142545,0.0450611,0.101119
432053,-0.0065918,-0.00415039,0.999023,0.234097,0.0755787,0.162154
432073,-0.00708008,-0.00463867,0.999268,0.0815094,0.167131,-0.020951
432083,-0.00732422,-0.00439453,0.998535,0.173062,0.0450611,-0.0514686
432103,-0.00732422,-0.00439453,0.998779,0.173062,-0.015974,-0.173539
432133,-0.00708008,-0.00463867,0.997803,0.234097,0.136614,0.0706017
432143,-0.0065918,-0.00439453,0.998535,-0.0100434,0.0145435,-0.143021
432183,-0.00634766,-0.00415039,0.998535,-0.0100434,0.319719,0.22319
432193,-0.00683594,-0.00415039,0.998291,0.173062,0.0450611,0.101119
432203,-0.00634766,-0.00390625,0.998779,-0.040561,0.197649,-0.020951
432213,-0.00585938,-0.00390625,0.998535,0.0509918,0.136614,-0.020951
432233,-0.0065918,-0.00439453,0.998535,0.0204742,0.0755787,0.0400841
432243,-0.0065918,-0.00439453,0.998047,0.20358,-0.0770092,0.101119
432253,-0.00683594,-0.00463867,0.998291,0.0815094,-0.107527,0.0706017
432283,-0.00683594,-0.00488281,0.998291,0.0815094,-0.0464916,-0.020951
432293,-0.0065918,-0.00488281,0.998535,-0.040561,0.106096,0.0400841
432313,-0.00610352,-0.00512695,0.998779,0.142545,0.197649,0.101119
432323,-0.00634766,-0.00463867,0.998535,0.0509918,0.0145435,0.101119
432333,-0.00634766,-0.00439453,0.998047,-0.101596,0.0450611,-0.020951
432343,-0.0065918,-0.00512695,0.998535,0.20358,0.106096,-0.0819862
432353,-0.00683594,-0.00512695,0.999268,-0.0100434,0.106096,0.0400841
432363,-0.00683594,-0.00488281,0.999512,-0.0100434,0.0755787,-0.0514686
432373,-0.00683594,-0.00512695,0.999268,0.173062,0.0755787,0.0706017
432383,-0.0065918,-0.00488281,0.999268,0.0204742,0.0755787,0.00956655
432393,-0.00683594,-0.00488281,0.999023,0.0509918,0.136614,0.00956655
432403,-0.00683594,-0.00488281,0.999023,0.0815094,0.136614,-0.0819862
432413,-0.00708008,-0.00463867,0.998535,0.264615,-0.015974,0.0400841
432423,-0.00732422,-0.00463867,0.998291,0.142545,0.0450611,-0.112504
432433,-0.00708008,-0.00463867,0.998291,0.0204742,0.0450611,-0.0819862
432433,-0.00708008,-0.00463867,0.998291,0.0204742,0.0450611,-0.0819862
432453,-0.0065918,-0.00488281,0.998047,0.0815094,0.106096,0.0400841
432463,-0.0065918,-0.00512695,0.998291,0.142545,0.0450611,0.101119
432473,-0.0065918,-0.00512695,0.998535,0.142545,-0.0464916,0.0400841
432483,-0.0065918,-0.00463867,0.998535,0.20358,0.106096,-0.143021
432493,-0.00610352,-0.00463867,0.998291,0.173062,-0.0464916,0.00956655
432503,-0.00585938,-0.00463867,0.998779,0.0204742,0.0450611,-0.020951
432513,-0.00683594,-0.00439453,0.998779,-0.0710785,0.0145435,-0.020951
432523,-0.00634766,-0.00415039,0.998779,0.20358,0.136614,-0.020951
432533,-0.00634766,-0.00439453,0.998291,0.264615,0.136614,0.131637
432543,-0.00585938,-0.00439453,0.998535,-0.162631,0.106096,0.0400841
432553,-0.00610352,-0.00439453,0.998047,0.0204742,0.106096,0.162154
432573,-0.0065918,-0.00488281,0.997803,0.0815094,0.0450611,0.00956655
432583,-0.00683594,-0.00463867,0.997559,-0.040561,0.228167,-0.020951
432593,-0.0065918,-0.00439453,0.997803,0.0815094,0.197649,0.0706017
432603,-0.0065918,-0.00463867,0.997803,0.0509918,0.106096,-0.020951
432613,-0.00708008,-0.00463867,0.997803,0.0815094,-0.015974,0.0706017
432623,-0.00732422,-0.00488281,0.997803,0.112027,0.106096,-0.020951
432633,-0.00708008,-0.00463867,0.998047,0.0509918,0.106096,0.0400841
432643,-0.00732422,-0.00512695,0.998291,0.173062,0.106096,0.101119
432653,-0.00732422,-0.00488281,0.998291,0.142545,0.136614,0.131637
432663,-0.00708008,-0.00415039,0.998047,0.173062,0.0755787,0.131637
432673,-0.00683594,-0.00415039,0.998047,0.0509918,-0.015974,-0.020951
432683,-0.00708008,-0.00390625,0.997559,0.142545,0.0145435,0.131637
432693,-0.00708008,-0.00415039,0.997803,0.20358,0.106096,-0.143021
432703,-0.00708008,-0.00390625,0.997559,0.0815094,0.197649,0.00956655
432713,-0.00683594,-0.00366211,0.998047,0.142545,0.0450611,-0.0819862
432723,-0.00683594,-0.00366211,0.998047,-0.040561,0.0755787,0.00956655
432733,-0.00732422,-0.00415039,0.997803,-0.0710785,0.0755787,0.0400841
432743,-0.00708008,-0.00415039,0.997803,0.0509918,-0.015974,0.00956655
432753,-0.00708008,-0.00415039,0.997803,0.112027,0.0450611,0.101119
432763,-0.00683594,-0.00415039,0.997803,0.173062,0.0450611,-0.326127
432773,-0.00683594,-0.00463867,0.998535,0.112027,-0.168562,-0.0514686
432783,-0.00708008,-0.00463867,0.998535,0.112027,0.106096,0.0706017
432793,-0.0065918,-0.00463867,0.999023,0.0204742,-0.0464916,0.00956655
432803,-0.0065918,-0.00463867,0.999268,0.112027,0.0755787,0.101119
432813,-0.00610352,-0.00488281,0.999023,0.0509918,0.0450611,0.0706017
432823,-0.0065918,-0.00463867,0.999023,-0.0710785,0.167131,0.0400841
432833,-0.00683594,-0.00439453,0.999023,0.0204742,0.0145435,0.131637
432843,-0.0065918,-0.00463867,0.999268,0.0815094,0.106096,-0.0514686
432853,-0.00634766,-0.00488281,0.999756,0.112027,0.0755787,-0.0819862
432863,-0.00683594,-0.00537109,0.999756,0.0509918,0.0145435,0.101119
432873,-0.0065918,-0.00537109,0.999512,0.142545,0.0755787,0.131637
432883,-0.00683594,-0.00537109,0.999268,0.0204742,0.136614,0.101119
432893,-0.00683594,-0.00537109,0.999023,0.173062,0.0755787,0.00956655
432903,-0.00683594,-0.00512695,0.999023,-0.0100434,0.136614,0.131637
432913,-0.00708008,-0.00512695,0.999023,0.142545,0.0755787,-0.0819862
432923,-0.00708008,-0.00488281,0.999756,-0.0100434,0.136614,-0.0514686
432933,-0.00708008,-0.00488281,0.999512,-0.0100434,-0.015974,0.0400841
432943,-0.00708008,-0.00463867,0.999756,-0.0100434,-0.138044,0.00956655
432953,-0.00756836,-0.00439453,0.999268,0.0204742,0.0450611,0.00956655
432963,-0.00683594,-0.00415039,0.999023,0.112027,-0.0770092,0.0706017
432983,-0.0065918,-0.00439453,0.999268,0.173062,0.197649,0.0400841
432993,-0.0065918,-0.00439453,0.999268,0.112027,0.106096,0.101119
433003,-0.00683594,-0.00463867,0.999023,0.0204742,0.0145435,0.0400841
433013,-0.00683594,-0.00439453,0.998291,-0.0100434,0.106096,0.192672
433023,-0.00683594,-0.00488281,0.998535,0.0204742,-0.015974,-0.020951
433033,-0.00708008,-0.00488281,0.999023,0.0815094,0.167131,0.0400841
433043,-0.00708008,-0.00512695,0.999023,0.0509918,0.0755787,0.101119
433053,-0.00708008,-0.00537109,0.998779,0.0204742,0.197649,-0.0514686
433063,-0.00708008,-0.00463867,0.999268,0.0204742,0.106096,0.0400841
433073,-0.0065918,-0.00488281,0.999023,0.0815094,-0.0464916,-0.0514686
433083,-0.0065918,-0.00488281,0.999268,0.264615,0.0450611,0.101119
433103,-0.00683594,-0.00512695,0.998779,0.0815094,-0.0464916,0.0400841
433113,-0.0065918,-0.00512695,0.998779,0.295132,0.136614,0.0400841
433133,-0.0065918,-0.00463867,0.999023,0.142545,-0.0464916,-0.020951
433143,-0.00708008,-0.00463867,0.999268,-0.162631,0.0755787,0.0706017
433163,-0.0065918,-0.00463867,0.998779,0.142545,0.0450611,-0.0514686
433173,-0.0065918,-0.00463867,0.999268,0.0509918,0.136614,0.00956655
433183,-0.00708008,-0.00488281,0.999268,-0.0100434,-0.015974,-0.020951
433193,-0.00708008,-0.00488281,0.999512,-0.0710785,0.106096,0.0400841
433203,-0.00708008,-0.00463867,0.999023,0.142545,-0.107527,-0.020951
433233,-0.00756836,-0.00488281,0.996826,0.173062,-0.0770092,-0.0819862
433263,-0.00708008,-0.00488281,0.998535,0.0509918,-0.107527,0.0706017
433273,-0.00683594,-0.00488281,0.998535,0.0815094,0.0145435,0.0706017
433293,-0.00610352,-0.00463867,0.999268,0.142545,-0.0464916,-0.112504
433323,-0.00683594,-0.00463867,0.998779,0.112027,-0.015974,0.0706017
433333,-0.00683594,-0.00463867,0.999268,0.295132,-0.0770092,0.0400841
433343,-0.00732422,-0.00463867,0.999512,0.173062,-0.015974,0.0706017
433373,-0.00683594,-0.00439453,0.998779,0.173062,0.106096,-0.112504
433413,-0.00683594,-0.00439453,0.998291,-0.0100434,0.0755787,0.0706017
433443,-0.00634766,-0.00512695,0.998291,0.0509918,0.0755787,0.162154
433483,-0.00683594,-0.00488281,0.998779,0.0815094,0.106096,0.162154
433513,-0.0065918,-0.00463867,0.999756,0.0204742,-0.0464916,0.101119
433553,-0.00708008,-0.00512695,0.999268,-0.101596,0.0145435,-0.0514686
433563,-0.00756836,-0.00463867,0.999023,0.0509918,-0.015974,0.192672
433573,-0.00732422,-0.00463867,0.999268,0.142545,0.0145435,0.101119
433613,-0.00683594,-0.00415039,0.998779,0.0509918,0.0450611,0.0706017
433743,-0.00683594,-0.00439453,0.999512,0.0509918,0.0755787,0.0706017
433763,-0.00683594,-0.00439453,0.999268,-0.0100434,0.0450611,-0.020951
433773,-0.00708008,-0.00488281,0.998779,0.142545,-0.0464916,0.131637
433903,-0.00683594,-0.00439453,0.999023,0.173062,0.106096,-0.020951
433983,-0.0065918,-0.00415039,0.999023,0.0204742,0.0450611,0.00956655
434053,-0.0065918,-0.00463867,0.998047,0.0204742,-0.0770092,0.0706017
434073,-0.00610352,-0.00463867,0.998047,0.0204742,0.136614,0.101119
434083,-0.00634766,-0.00463867,0.998779,0.0509918,0.0145435,0.0400841
434103,-0.00683594,-0.00488281,0.999023,0.0204742,0.106096,0.162154
434133,-0.00683594,-0.00439453,0.998535,0.234097,-0.015974,0.0706017
434183,-0.00732422,-0.00488281,0.998047,0.20358,-0.138044,-0.0514686
434253,-0.00683594,-0.00488281,0.998291,0.0815094,0.106096,-0.0514686
434343,-0.00683594,-0.00439453,0.999268,0.142545,0.0755787,-0.0514686
434373,-0.00708008,-0.00463867,0.999756,0.142545,0.106096,-0.0819862
434383,-0.00708008,-0.00463867,0.999756,-0.0100434,0.106096,0.00956655
434433,-0.00683594,-0.00439453,0.998779,0.0509918,0.106096,0.0400841
434463,-0.00708008,-0.00439453,0.998779,0.0815094,0.0450611,0.131637
434513,-0.00683594,-0.00512695,0.997803,0.142545,0.167131,0.0706017
434533,-0.00683594,-0.00488281,0.998535,0.142545,0.167131,-0.020951
434553,-0.00708008,-0.00415039,0.998291,0.0204742,0.0755787,0.0400841
434613,-0.00708008,-0.00463867,0.998779,0.142545,0.0450611,0.00956655
434643,-0.00634766,-0.00488281,0.998291,0.173062,0.0145435,-0.234574
434653,-0.00634766,-0.00488281,0.998291,0.0815094,0.136614,0.131637
434703,-0.0065918,-0.00488281,0.998291,0.20358,0.0450611,0.00956655
434733,-0.00683594,-0.00463867,0.998291,0.142545,0.197649,0.00956655
434743,-0.0065918,-0.00439453,0.999023,0.112027,0.167131,0.0400841
434763,-0.00683594,-0.00415039,0.998779,0.0815094,0.106096,0.101119
434773,-0.00708008,-0.00463867,0.998535,0.0509918,0.0450611,-0.0514686
434783,-0.00683594,-0.00512695,0.998779,0.112027,0.0755787,-0.020951
434793,-0.00683594,-0.00488281,0.998779,0.0204742,0.106096,0.101119
434803,-0.00683594,-0.00512695,0.998535,0.142545,0.0450611,0.0706017
434813,-0.00708008,-0.00439453,0.998291,0.0509918,0.0145435,-0.0514686
434823,-0.00732422,-0.00439453,0.998535,0.142545,0.0145435,-0.0514686
434833,-0.00732422,-0.00488281,0.998047,0.142545,0.0755787,0.0706017
434843,-0.00708008,-0.00463867,0.997559,0.173062,0.106096,0.0706017
434853,-0.00732422,-0.00463867,0.998047,0.0204742,0.0755787,-0.020951
434863,-0.00732422,-0.00488281,0.998047,0.142545,0.0450611,-0.0819862
434873,-0.00708008,-0.00488281,0.997803,0.0815094,-0.015974,0.101119
434913,-0.00634766,-0.00463867,0.998047,0.0815094,0.0450611,0.0400841
434923,-0.00634766,-0.00463867,0.998291,0.0815094,0.0755787,0.101119
434933,-0.00634766,-0.00488281,0.998535,0.112027,0.0755787,0.0706017
434943,-0.0065918,-0.00488281,0.998535,-0.0100434,0.0145435,0.101119
434953,-0.00683594,-0.00488281,0.998291,0.112027,-0.015974,0.0400841
434963,-0.0065918,-0.00488281,0.998291,0.0509918,-0.015974,0.0706017
434983,-0.0065918,-0.00439453,0.998291,0.20358,0.0450611,0.101119
434993,-0.00683594,-0.00439453,0.998535,0.0204742,0.106096,-0.0819862
435003,-0.0065918,-0.00463867,0.998535,0.173062,0.0755787,-0.0514686
435013,-0.00683594,-0.00463867,0.998779,0.112027,0.167131,0.00956655
435023,-0.00683594,-0.00415039,0.998535,-0.0100434,0.197649,-0.020951
435033,-0.00708008,-0.00415039,0.998779,0.112027,0.136614,0.0400841
435043,-0.00732422,-0.00415039,0.999512,0.0204742,0.0755787,-0.020951
435053,-0.00756836,-0.00415039,0.999023,0.112027,-0.0464916,-0.0819862
435063,-0.00732422,-0.00439453,0.999268,0.142545,0.0755787,0.00956655
435073,-0.00708008,-0.00439453,0.999268,0.0509918,0.0450611,0.162154
435083,-0.00683594,-0.00463867,0.999756,0.112027,-0.0464916,0.00956655
435093,-0.00708008,-0.00439453,0.999512,0.0204742,0.136614,-0.020951
435103,-0.00732422,-0.00439453,0.999512,0.173062,0.0450611,-0.143021
435113,-0.00732422,-0.00463867,0.999268,0.0204742,0.167131,-0.020951
435123,-0.00732422,-0.00488281,0.999512,0.0204742,0.0450611,0.101119
435133,-0.00732422,-0.00488281,0.998779,0.0509918,0.0450611,-0.112504
435143,-0.00708008,-0.00463867,0.998779,0.112027,0.106096,-0.112504
435153,-0.00708008,-0.00512695,0.999023,0.0815094,0.197649,-0.112504
435163,-0.00708008,-0.00488281,0.999756,0.112027,0.0755787,-0.112504
435173,-0.00732422,-0.00512695,0.999023,-0.040561,0.0145435,0.0400841
435183,-0.00732422,-0.00512695,0.999023,0.0509918,0.0755787,-0.020951
435193,-0.00756836,-0.00488281,0.998535,0.112027,-0.107527,0.0706017
435203,-0.00732422,-0.00439453,0.998535,0.0815094,0.106096,0.0400841
435213,-0.00708008,-0.00488281,0.998047,0.0204742,-0.0770092,0.00956655
435223,-0.00732422,-0.00463867,0.998047,0.0204742,0.136614,0.0706017
435233,-0.00683594,-0.00463867,0.998291,0.0509918,0.197649,0.00956655
435243,-0.0065918,-0.00463867,0.998047,0.0509918,0.106096,-0.0819862
435253,-0.00683594,-0.00463867,0.998047,0.112027,0.167131,0.131637
435263,-0.00683594,-0.00439453,0.998291,-0.0710785,0.0755787,0.131637
435273,-0.00708008,-0.00390625,0.998535,0.0509918,-0.0464916,0.131637
435283,-0.00732422,-0.00439453,0.998047,0.264615,0.0450611,0.00956655
435303,-0.00708008,-0.00439453,0.997559,0.0204742,0.106096,0.0706017
435313,-0.00708008,-0.00439453,0.997559,0.356168,0.0450611,-0.143021
435323,-0.0065918,-0.00439453,0.997803,0.0815094,0.0450611,0.253707
435333,-0.00683594,-0.00415039,0.997803,0.0204742,-0.0770092,0.101119
435343,-0.0065918,-0.00439453,0.997803,0.0204742,0.0450611,-0.020951
435353,-0.00683594,-0.00463867,0.997803,0.173062,0.167131,0.0400841
435363,-0.00634766,-0.00415039,0.998047,0.0204742,-0.015974,0.192672
435373,-0.00634766,-0.00415039,0.998047,0.173062,0.136614,-0.112504
435383,-0.00634766,-0.00366211,0.998291,0.112027,0.0450611,-0.020951
435393,-0.00610352,-0.00366211,0.998291,0.0204742,0.106096,-0.020951
435403,-0.00634766,-0.00390625,0.999023,0.0509918,0.136614,-0.0514686
435413,-0.0065918,-0.00390625,0.998535,0.0509918,0.167131,0.00956655
435423,-0.00708008,-0.00415039,0.998291,0.0815094,0.106096,0.00956655
435433,-0.00708008,-0.00415039,0.998535,0.0509918,-0.015974,-0.143021
435443,-0.00683594,-0.00439453,0.997803,0.112027,0.0755787,0.00956655
435453,-0.00683594,-0.00415039,0.997803,0.112027,0.136614,0.0706017
435463,-0.00683594,-0.00390625,0.997803,-0.0100434,-0.0464916,-0.020951
435473,-0.0065918,-0.00415039,0.997559,0.112027,0.0145435,-0.020951
435483,-0.00708008,-0.00439453,0.998047,0.173062,-0.015974,-0.0819862
435493,-0.00683594,-0.00439453,0.998047,0.0204742,0.0145435,-0.020951
435503,-0.00683594,-0.00439453,0.998779,0.0204742,0.167131,0.0706017
435513,-0.0065918,-0.00439453,0.998779,0.0509918,0.136614,0.0400841
435523,-0.00634766,-0.00439453,0.998535,0.0509918,0.0450611,0.131637
435533,-0.0065918,-0.00463867,0.998535,0.0509918,0.0145435,-0.0514686
435543,-0.0065918,-0.00415039,0.998535,0.173062,0.106096,0.0706017
435553,-0.00683594,-0.00415039,0.998779,0.173062,0.0755787,0.0400841
435563,-0.00634766,-0.00415039,0.998535,0.173062,0.136614,0.0706017
435573,-0.00610352,-0.00415039,0.999023,0.173062,0.0450611,0.131637
435583,-0.00634766,-0.00415039,0.999023,0.20358,0.0755787,-0.020951
435593,-0.0065918,-0.00415039,0.998291,0.20358,0.197649,0.101119
435603,-0.00683594,-0.00415039,0.998535,0.0815094,-0.015974,-0.020951
435613,-0.00708008,-0.00488281,0.998779,0.142545,0.0145435,0.192672
435623,-0.00708008,-0.00463867,0.999023,0.0509918,0.136614,0.00956655
435633,-0.00683594,-0.00463867,0.999268,0.0815094,0.106096,-0.020951
435643,-0.00683594,-0.00463867,0.999268,0.0815094,0.0755787,-0.0514686
435653,-0.00683594,-0.00439453,0.999023,0.112027,0.0450611,0.131637
435663,-0.00708008,-0.00415039,0.999756,0.0509918,0.167131,0.162154
435683,-0.00756836,-0.00439453,0.998779,0.234097,0.0755787,0.0400841
435693,-0.00756836,-0.00463867,0.998779,0.142545,0.136614,0.0400841
435703,-0.00732422,-0.00439453,0.998535,0.0509918,0.167131,0.101119
435713,-0.00708008,-0.00463867,0.998779,0.234097,0.197649,0.131637
435723,-0.00708008,-0.00463867,0.998779,0.173062,-0.0770092,0.0706017
435733,-0.00683594,-0.00463867,0.999023,0.0204742,0.0755787,-0.0819862
435743,-0.00634766,-0.00488281,0.999512,-0.040561,0.106096,0.192672
435753,-0.0065918,-0.00463867,1,0.112027,0.0755787,0.00956655
435763,-0.00683594,-0.00439453,1.00024,0.142545,0.197649,0.162154
435773,-0.00708008,-0.00439453,0.999756,0.0204742,0.0755787,0.131637
435783,-0.00683594,-0.00415039,0.999756,0.0815094,0.0145435,0.0400841
435793,-0.00683594,-0.00415039,0.999268,0.112027,0.0145435,-0.020951
435813,-0.0065918,-0.00415039,0.999512,0.0204742,0.0450611,0.0400841
435823,-0.00683594,-0.00415039,0.999512,-0.0100434,-0.015974,0.0400841
435833,-0.00708008,-0.00439453,0.999756,0.20358,-0.015974,0.101119
435843,-0.00683594,-0.00439453,0.999512,0.112027,0.0450611,0.22319
435853,-0.0065918,-0.00463867,0.999268,0.173062,0.0450611,0.0400841
435863,-0.00634766,-0.00463867,0.998779,-0.0100434,0.136614,-0.020951
435883,-0.00610352,-0.00463867,0.999023,0.173062,0.0450611,0.101119
435893,-0.00634766,-0.00463867,0.998779,0.0509918,0.0755787,0.0706017
435903,-0.00634766,-0.00512695,0.998779,-0.0100434,0.0145435,-0.0514686
435933,-0.0065918,-0.00488281,0.998779,0.142545,0.0450611,0.00956655
435943,-0.0065918,-0.00488281,0.998779,0.0815094,0.106096,-0.0514686
435963,-0.0065918,-0.00537109,0.998779,0.0204742,0.0145435,0.101119
435983,-0.0065918,-0.00488281,0.999512,0.142545,0.0145435,0.0400841
436003,-0.00585938,-0.00463867,0.999023,0.0815094,-0.015974,0.00956655
436013,-0.00610352,-0.00439453,0.998535,0.173062,-0.015974,-0.143021
436023,-0.00585938,-0.00439453,0.998779,0.0509918,-0.015974,0.00956655
436043,-0.00585938,-0.00415039,0.998291,0.0509918,-0.015974,-0.0514686
436053,-0.00610352,-0.00415039,0.998047,-0.0100434,0.0450611,0.131637
436063,-0.00610352,-0.00390625,0.997803,0.0815094,0.0145435,0.0400841
436073,-0.00683594,-0.00439453,0.998291,0.0815094,0.136614,-0.0819862
436083,-0.00708008,-0.00439453,0.998779,0.142545,-0.015974,0.162154
436093,-0.00708008,-0.00415039,0.999023,0.173062,0.0145435,-0.112504
436123,-0.00708008,-0.00439453,0.998779,0.0509918,0.0450611,0.131637
436133,-0.00708008,-0.00415039,0.998535,0.0509918,0.167131,0.192672
436153,-0.00708008,-0.00439453,0.998779,0.0204742,0.0450611,-0.0819862
436183,-0.00756836,-0.00463867,0.999023,-0.0100434,0.167131,0.131637
436193,-0.0078125,-0.00488281,0.998291,0.264615,0.0755787,0.0400841
436203,-0.00756836,-0.00488281,0.998291,0.0204742,0.0755787,0.101119
436213,-0.00756836,-0.00463867,0.998047,-0.0710785,0.106096,0.0706017
436223,-0.00732422,-0.00463867,0.997803,0.142545,0.0450611,-0.0514686
436233,-0.00708008,-0.00463867,0.997803,0.0204742,-0.015974,0.0400841
436263,-0.0065918,-0.00512695,0.999023,0.173062,-0.0464916,0.00956655
436293,-0.00683594,-0.00488281,0.999023,0.0204742,0.0450611,0.00956655
436313,-0.0065918,-0.00463867,0.999023,0.20358,0.0145435,0.0706017
436323,-0.0065918,-0.00488281,0.999268,0.142545,0.0145435,-0.0514686
436333,-0.0065918,-0.00488281,0.999512,0.0204742,0.167131,0.0706017
436343,-0.0065918,-0.00488281,0.998779,-0.0710785,0.136614,0.00956655
436353,-0.00708008,-0.00439453,0.998779,0.173062,-0.0770092,0.0400841
436363,-0.00708008,-0.00488281,0.999023,0.0204742,0.0755787,-0.020951
436373,-0.00683594,-0.00488281,0.998779,0.234097,0.0450611,-0.020951
436403,-0.00683594,-0.00463867,0.998047,0.112027,0.106096,-0.0819862
436423,-0.00683594,-0.00463867,0.998291,-0.0100434,-0.015974,0.131637
436433,-0.00708008,-0.00463867,0.998291,0.173062,-0.0464916,-0.112504
436443,-0.00708008,-0.00463867,0.998535,0.112027,0.197649,0.0706017
436463,-0.00708008,-0.00439453,0.998535,0.112027,0.0755787,-0.143021
436473,-0.00708008,-0.00488281,0.998047,0.0509918,0.106096,0.0706017
436483,-0.00708008,-0.00512695,0.997559,0.0509918,0.167131,0.131637
436493,-0.00683594,-0.00488281,0.996826,-0.0710785,0.0755787,-0.020951
436503,-0.00683594,-0.00463867,0.997314,0.0204742,-0.107527,0.101119
436523,-0.00708008,-0.00463867,0.997314,-0.040561,0.0450611,-0.020951
436533,-0.00708008,-0.00415039,0.99707,0.0815094,0.106096,0.0706017
436553,-0.00683594,-0.00415039,0.997803,0.173062,0.0145435,0.101119
436583,-0.00708008,-0.00415039,0.998535,0.0815094,0.136614,0.131637
436593,-0.00756836,-0.00439453,0.998535,0.0204742,0.0450611,-0.0514686
436603,-0.00732422,-0.00439453,0.998535,0.142545,0.0755787,0.192672
436613,-0.00732422,-0.00439453,0.998535,-0.0100434,-0.015974,0.0400841
436633,-0.00708008,-0.00463867,0.998047,0.0509918,0.0145435,-0.020951
436643,-0.00732422,-0.00488281,0.997314,0.0815094,0.0450611,-0.0514686
436653,-0.00683594,-0.00463867,0.998047,0.173062,0.0450611,0.0400841
436663,-0.0065918,-0.00463867,0.998291,0.0204742,0.0755787,0.00956655
436673,-0.0065918,-0.00439453,0.998047,0.0509918,-0.015974,0.00956655
436683,-0.0065918,-0.00415039,0.998291,0.112027,0.0450611,0.101119
436733,-0.00683594,-0.00488281,0.999023,0.0509918,0.0450611,-0.0819862
436773,-0.0065918,-0.00488281,0.999268,-0.0100434,0.0145435,-0.020951
436793,-0.00634766,-0.00512695,0.998535,0.112027,0.0755787,0.00956655
436803,-0.00683594,-0.00488281,0.998535,0.0509918,0.0755787,0.101119
436823,-0.0065918,-0.00488281,0.999023,0.20358,0.289202,-0.020951
436833,-0.00634766,-0.00439453,0.998779,0.0509918,0.0755787,0.0400841
436843,-0.0065918,-0.00439453,0.999023,0.173062,0.0755787,0.101119
436853,-0.0065918,-0.00463867,0.998779,0.0815094,0.136614,0.00956655
436863,-0.0065918,-0.00463867,0.998047,0.112027,0.0145435,-0.112504
436873,-0.00683594,-0.00463867,0.998535,0.0815094,-0.0770092,0.162154
436903,-0.0065918,-0.00488281,0.997803,0.112027,0.0450611,0.00956655
436923,-0.00708008,-0.00463867,0.997803,0.142545,0.136614,0.0400841
436933,-0.00732422,-0.00463867,0.997803,0.20358,0.0450611,0.0706017
436943,-0.00708008,-0.00463867,0.998535,0.142545,0.0450611,0.0706017
436973,-0.00708008,-0.00415039,0.998779,0.142545,0.0145435,0.0706017
436983,-0.00708008,-0.00415039,0.998291,0.142545,0.0145435,0.0400841
437003,-0.00683594,-0.00439453,0.998291,0.112027,0.167131,0.00956655
437013,-0.00683594,-0.00463867,0.998047,0.142545,-0.015974,0.101119
437033,-0.00683594,-0.00488281,0.998535,0.173062,0.136614,-0.0819862
437043,-0.00708008,-0.00488281,0.998535,0.0815094,0.167131,-0.020951
437093,-0.00683594,-0.00512695,0.998291,0.0204742,0.0755787,0.0706017
437103,-0.00683594,-0.00488281,0.997559,0.142545,0.106096,0.101119
437113,-0.00683594,-0.00488281,0.998291,0.112027,0.0145435,-0.0819862
437163,-0.00708008,-0.00488281,0.997559,0.0204742,0.136614,0.0706017
437193,-0.00756836,-0.00488281,0.998047,0.295132,0.0755787,0.0706017
437233,-0.00756836,-0.00463867,0.997803,-0.0100434,0.0450611,0.131637
437243,-0.00708008,-0.00439453,0.997559,0.112027,0.106096,-0.020951
437263,-0.00683594,-0.00488281,0.997314,0.0815094,0.167131,-0.0819862
437273,-0.00708008,-0.00488281,0.997314,0.142545,0.106096,0.00956655
437283,-0.0065918,-0.00512695,0.997314,0.234097,0.0145435,-0.0514686
437293,-0.00708008,-0.00488281,0.998047,0.112027,0.106096,0.00956655
437303,-0.00732422,-0.00463867,0.998291,0.0509918,0.136614,0.00956655
437333,-0.00732422,-0.00463867,0.998535,0.234097,0.0755787,-0.0514686
437353,-0.00708008,-0.00463867,0.998291,0.0815094,0.0450611,0.0400841
437363,-0.00683594,-0.00463867,0.998291,0.112027,0.0450611,0.192672
437383,-0.00708008,-0.00512695,0.998291,0.142545,0.0450611,-0.020951
437403,-0.00732422,-0.00512695,0.999268,-0.0710785,0.136614,0.131637
437413,-0.00708008,-0.00488281,0.999268,0.142545,0.167131,0.101119
437423,-0.00683594,-0.00463867,0.999023,-0.0100434,0.0450611,-0.020951
437443,-0.00708008,-0.00439453,0.999023,0.142545,-0.015974,0.0400841
437453,-0.00708008,-0.00439453,0.998779,0.142545,0.106096,0.0400841
437463,-0.00732422,-0.00439453,0.999023,0.173062,0.106096,-0.020951
437473,-0.00756836,-0.00463867,0.998779,0.112027,0.136614,0.131637
437493,-0.00732422,-0.00463867,0.998535,0.0204742,0.0450611,0.0706017
437513,-0.00708008,-0.00439453,0.998291,0.0815094,0.228167,0.0400841
437523,-0.00732422,-0.00488281,0.998047,-0.040561,0.0145435,0.101119
437543,-0.00708008,-0.00512695,0.998047,0.20358,0.0145435,0.101119
437553,-0.00683594,-0.00537109,0.997559,0.20358,0.0450611,0.131637
437563,-0.00756836,-0.00488281,0.997314,0.20358,0.0755787,0.0400841
437583,-0.0078125,-0.00488281,0.997803,0.295132,-0.015974,-0.0819862
437593,-0.00732422,-0.00488281,0.998291,0.112027,-0.107527,0.101119
437603,-0.00732422,-0.00439453,0.997803,-0.0100434,0.0145435,0.00956655
437613,-0.00732422,-0.00439453,0.998047,0.0815094,0.0145435,-0.020951
437623,-0.00732422,-0.00439453,0.998047,0.0509918,0.0145435,-0.112504
437643,-0.00708008,-0.00439453,0.998291,-0.0100434,0.167131,-0.020951
437653,-0.00708008,-0.00463867,0.998291,0.0815094,0.0755787,0.131637
437663,-0.00708008,-0.00463867,0.997803,-0.0100434,0.0145435,0.00956655
437673,-0.0065918,-0.00463867,0.997314,0.0815094,0.106096,-0.112504
437683,-0.00708008,-0.00488281,0.998291,0.173062,0.0145435,-0.143021
437703,-0.0065918,-0.00488281,0.998291,0.173062,0.136614,0.0400841
437713,-0.00683594,-0.00488281,0.998779,0.142545,0.0450611,-0.143021
437723,-0.00683594,-0.00488281,0.998779,0.112027,0.0450611,0.0400841
437733,-0.00708008,-0.00488281,0.998535,-0.0710785,0.106096,0.253707
437743,-0.00732422,-0.00512695,0.998047,0.0815094,0.197649,0.162154
437753,-0.00732422,-0.00512695,0.998047,0.0815094,0.106096,0.0400841
437763,-0.00732422,-0.00463867,0.997803,0.112027,-0.138044,0.101119
437773,-0.00683594,-0.00439453,0.998535,0.0815094,0.0755787,-0.020951
437793,-0.00683594,-0.00488281,0.998779,0.142545,0.136614,0.131637
437803,-0.00683594,-0.00463867,0.998535,0.142545,0.0450611,-0.020951
437823,-0.0065918,-0.00512695,0.998535,0.0509918,0.0755787,-0.020951
437833,-0.0065918,-0.00488281,0.998291,0.0509918,0.0450611,-0.112504
437843,-0.0065918,-0.00512695,0.998535,0.142545,0.0450611,-0.112504
437853,-0.00708008,-0.00463867,0.998535,0.20358,0.0755787,-0.0514686
437863,-0.00683594,-0.00463867,0.999023,0.142545,0.0145435,-0.020951
437873,-0.0065918,-0.00463867,0.999512,0.173062,0.0145435,-0.0819862
437883,-0.0065918,-0.00488281,0.999268,0.173062,-0.0770092,-0.0514686
437903,-0.00683594,-0.00488281,0.998535,-0.0100434,0.0450611,-0.0819862
437913,-0.00732422,-0.00463867,0.998291,0.264615,0.106096,0.0400841
437923,-0.00708008,-0.00463867,0.998779,0.142545,0.0755787,0.0706017
437933,-0.00732422,-0.00488281,0.998291,0.173062,0.0755787,-0.0819862
437943,-0.00732422,-0.00488281,0.998291,0.264615,0.0755787,0.192672
437953,-0.00708008,-0.00463867,0.998535,0.112027,0.0450611,0.101119
437963,-0.00708008,-0.00488281,0.998535,0.0509918,-0.015974,0.101119
437973,-0.00708008,-0.00463867,0.998047,0.20358,0.0450611,0.0706017
437983,-0.00708008,-0.00488281,0.998779,0.20358,0.228167,-0.020951
437993,-0.00708008,-0.00488281,0.998779,0.0509918,0.106096,0.00956655
438003,-0.00708008,-0.00512695,0.999268,0.112027,0.0450611,0.162154
438013,-0.00708008,-0.00537109,0.999023,0.112027,-0.0464916,-0.020951
438023,-0.00683594,-0.00488281,0.998535,0.264615,0.0450611,-0.020951
438033,-0.00683594,-0.00488281,0.998291,0.112027,0.106096,-0.0514686
438043,-0.0065918,-0.00463867,0.997559,0.0509918,-0.0770092,-0.020951
438053,-0.00683594,-0.00488281,0.997803,0.173062,0.106096,-0.020951
438063,-0.00708008,-0.00463867,0.997314,0.142545,0.106096,0.131637
438073,-0.00756836,-0.00463867,0.997314,0.0509918,0.136614,0.0400841
438083,-0.00732422,-0.00463867,0.997803,0.0204742,0.106096,-0.020951
438093,-0.00732422,-0.00488281,0.997803,-0.132114,0.136614,0.00956655
438103,-0.00732422,-0.00488281,0.997559,0.0815094,0.136614,0.00956655
438113,-0.00683594,-0.00512695,0.998047,0.0815094,0.136614,-0.020951
438123,-0.00683594,-0.00512695,0.997803,0.295132,0.106096,0.131637
438133,-0.00683594,-0.00512695,0.997803,-0.0100434,0.0755787,0.00956655
438143,-0.00683594,-0.00512695,0.998047,-0.0100434,0.0450611,0.0706017
438153,-0.00732422,-0.00537109,0.998291,-0.0100434,0.0145435,-0.0514686
438163,-0.00732422,-0.00512695,0.998535,0.264615,-0.0770092,-0.143021
438173,-0.00732422,-0.00488281,0.998535,-0.040561,0.197649,-0.143021
438183,-0.00732422,-0.00488281,0.998779,0.295132,0.106096,0.0400841
438193,-0.00708008,-0.00561523,0.999023,-0.0100434,-0.0770092,0.0706017
438203,-0.00683594,-0.00512695,0.998779,0.142545,0.167131,0.00956655
438213,-0.00634766,-0.00512695,0.999756,0.112027,0.106096,0.0706017
438223,-0.0065918,-0.00537109,0.999023,0.20358,0.197649,0.00956655
438233,-0.0065918,-0.00537109,0.998535,0.0204742,0.106096,-0.020951
438243,-0.00634766,-0.00537109,0.998047,-0.0100434,0.0145435,0.131637
438253,-0.0065918,-0.00561523,0.997559,0.142545,0.0145435,0.00956655
438263,-0.0065918,-0.00537109,0.997803,0.173062,0.0145435,0.0706017
438273,-0.00732422,-0.00561523,0.997314,0.142545,0.106096,-0.0514686
438293,-0.00732422,-0.00537109,0.997803,0.0204742,0.228167,0.00956655
438303,-0.00708008,-0.00561523,0.997314,0.173062,0.228167,-0.0819862
438313,-0.0065918,-0.00561523,0.997559,-0.101596,0.0145435,0.0400841
438323,-0.00708008,-0.00537109,0.99707,0.0509918,-0.0464916,0.0400841
438333,-0.00708008,-0.00585938,0.99707,-0.0100434,0.0145435,0.0706017
438343,-0.00756836,-0.00585938,0.997559,0.173062,0.0755787,0.101119
438353,-0.00732422,-0.00561523,0.997559,0.112027,-0.015974,-0.020951
438363,-0.00708008,-0.00585938,0.997803,0.0509918,0.197649,-0.0514686
438373,-0.00732422,-0.00561523,0.998535,-0.040561,-0.015974,0.131637
438383,-0.00732422,-0.00537109,0.998779,0.142545,0.0145435,-0.020951
438393,-0.00708008,-0.00561523,0.998291,0.0204742,0.228167,-0.0819862
438403,-0.00732422,-0.00561523,0.998535,0.0815094,-0.015974,0.00956655
438423,-0.00756836,-0.00512695,0.998291,0.142545,-0.0770092,-0.0514686
438433,-0.00756836,-0.00537109,0.998047,0.173062,0.136614,0.0400841
438443,-0.00708008,-0.00537109,0.998047,0.142545,-0.015974,0.0400841
438463,-0.00732422,-0.00537109,0.998535,0.112027,0.106096,0.00956655
438473,-0.00732422,-0.00537109,0.997803,0.142545,0.106096,0.0400841
438503,-0.00756836,-0.00512695,0.998291,0.112027,0.0450611,-0.0819862
438513,-0.00732422,-0.00512695,0.998047,0.0509918,0.0450611,-0.0819862
438523,-0.00732422,-0.00488281,0.998291,0.0815094,0.167131,0.0400841
438553,-0.00708008,-0.00512695,0.998291,0.173062,0.0450611,-0.0514686
438573,-0.00708008,-0.00537109,0.997803,0.0204742,0.106096,0.0706017
438583,-0.00683594,-0.00537109,0.997803,0.234097,-0.0770092,0.101119
438593,-0.00708008,-0.00512695,0.998291,0.173062,0.167131,0.0400841
438603,-0.00683594,-0.00488281,0.998047,0.142545,-0.0770092,-0.0819862
438613,-0.00683594,-0.00488281,0.997559,0.112027,0.0450611,-0.0514686
438623,-0.0065918,-0.00488281,0.998047,-0.0100434,0.106096,0.00956655
438643,-0.00634766,-0.00488281,0.998535,0.234097,0.106096,0.0400841
438663,-0.00683594,-0.00488281,0.999023,0.0509918,0.0145435,0.0400841
438713,-0.00683594,-0.00512695,0.997803,0.0815094,-0.107527,0.00956655
438723,-0.00708008,-0.00488281,0.997803,0.0204742,-0.0770092,0.0706017
438733,-0.00708008,-0.00512695,0.997803,0.112027,0.136614,-0.020951
438763,-0.00708008,-0.00512695,0.998047,-0.0710785,0.0145435,0.00956655
438803,-0.00756836,-0.00537109,0.997803,0.20358,0.0450611,-0.112504
438813,-0.00756836,-0.00512695,0.998779,0.0815094,-0.015974,0.00956655
438823,-0.0078125,-0.00512695,0.999268,0.142545,-0.0464916,0.00956655
438833,-0.00756836,-0.00537109,0.998535,0.0204742,0.0450611,-0.020951
438843,-0.00756836,-0.00512695,0.998535,0.173062,0.106096,0.0706017
438853,-0.00756836,-0.00512695,0.998047,0.0509918,0.0145435,0.0400841
438863,-0.00756836,-0.00463867,0.998047,-0.0100434,0.106096,0.00956655
438883,-0.00708008,-0.00488281,0.998779,0.0509918,0.0755787,0.22319
438893,-0.00708008,-0.00488281,0.998047,0.0815094,0.0755787,-0.0514686
438913,-0.00732422,-0.00488281,0.999023,0.112027,0.106096,0.22319
438933,-0.00708008,-0.00463867,0.998047,0.234097,0.0450611,-0.020951
438943,-0.00683594,-0.00463867,0.998047,0.173062,0.167131,0.0706017
438963,-0.00683594,-0.00488281,0.99707,0.173062,0.136614,0.101119
438973,-0.00708008,-0.00488281,0.997314,0.0204742,0.0755787,0.0706017
439063,-0.0065918,-0.00512695,0.998291,0.20358,0.0450611,0.00956655
439073,-0.00683594,-0.00488281,0.998047,0.112027,0.0450611,-0.0514686
439103,-0.00732422,-0.00561523,0.997803,0.112027,-0.0464916,-0.0514686
439143,-0.00756836,-0.00463867,0.997803,0.20358,0.0145435,0.00956655
439153,-0.00756836,-0.00488281,0.998291,0.0509918,0.0450611,-0.0819862
439163,-0.00732422,-0.00488281,0.998047,0.264615,-0.0770092,0.0400841
439193,-0.0065918,-0.00488281,0.996826,0.20358,0.0145435,0.0706017
439243,-0.00732422,-0.00561523,0.998535,0.173062,0.0145435,-0.0819862
439273,-0.0078125,-0.00537109,0.998047,0.0509918,0.0755787,0.162154
439353,-0.0078125,-0.00488281,0.998535,-0.040561,0.106096,0.00956655
439363,-0.00756836,-0.00488281,0.998535,0.0509918,0.136614,-0.020951
439373,-0.00756836,-0.00463867,0.998047,0.112027,0.197649,0.101119
439433,-0.0065918,-0.00488281,0.997803,0.112027,-0.015974,0.162154
439443,-0.00708008,-0.00488281,0.997314,0.173062,0.289202,-0.020951
439473,-0.00708008,-0.00488281,0.997559,0.173062,0.136614,0.101119
439483,-0.00732422,-0.00463867,0.997559,0.173062,-0.015974,-0.020951
439513,-0.00732422,-0.00488281,0.997803,-0.0100434,0.0450611,0.00956655
439553,-0.00683594,-0.00561523,0.998535,-0.0710785,-0.0464916,0.00956655
439563,-0.00634766,-0.00561523,0.998535,0.0204742,0.0450611,0.22319
439583,-0.00683594,-0.00561523,0.998291,0.0204742,-0.015974,0.00956655
439603,-0.00634766,-0.00537109,0.998047,-0.0100434,0.0145435,-0.020951
439623,-0.0065918,-0.00512695,0.998291,-0.101596,0.106096,0.0400841
439633,-0.00683594,-0.00512695,0.998047,0.142545,0.197649,-0.0514686
439663,-0.00708008,-0.00512695,0.998535,0.142545,-0.0770092,-0.112504
439683,-0.00732422,-0.00537109,0.998047,0.0509918,0.0755787,-0.0514686
439693,-0.00732422,-0.00537109,0.998047,0.142545,0.0755787,0.101119
439703,-0.00732422,-0.00537109,0.998047,0.0204742,0.106096,0.0706017
439723,-0.00683594,-0.00488281,0.997559,-0.101596,0.0755787,-0.020951
439753,-0.0065918,-0.00488281,0.998291,0.142545,-0.0464916,0.101119
439783,-0.00708008,-0.00488281,0.998291,0.0509918,0.0145435,0.253707
439803,-0.00732422,-0.00463867,0.998047,0.173062,0.167131,-0.0514686
439853,-0.00756836,-0.00439453,0.998291,0.173062,0.0755787,0.131637
439873,-0.00732422,-0.00439453,0.997803,0.142545,0.0145435,0.0400841
439913,-0.00683594,-0.00537109,0.997559,0.0815094,0.0755787,0.131637
439943,-0.0065918,-0.00537109,0.998047,-0.0710785,0.0145435,0.0706017
439963,-0.00634766,-0.00512695,0.998047,0.112027,0.0145435,0.192672
439973,-0.0065918,-0.00512695,0.998047,-0.0100434,0.0755787,0.00956655
440003,-0.0065918,-0.00488281,0.997559,0.142545,0.0450611,-0.020951
440023,-0.00634766,-0.00537109,0.997559,0.112027,0.106096,0.101119
440033,-0.00708008,-0.00537109,0.99707,0.112027,0.0450611,0.0706017
440043,-0.00683594,-0.00512695,0.99707,0.112027,0.106096,0.00956655
440073,-0.00683594,-0.00463867,0.997314,0.0815094,0.136614,0.00956655
440093,-0.00708008,-0.00415039,0.998535,0.112027,0.167131,-0.020951
440103,-0.00708008,-0.00488281,0.998291,0.20358,-0.0770092,0.131637
440133,-0.0065918,-0.00463867,0.998779,-0.0100434,0.106096,0.0400841
440143,-0.00683594,-0.00463867,0.998291,0.173062,0.0755787,0.00956655
440153,-0.00708008,-0.00439453,0.997803,-0.0100434,0.0755787,-0.020951
440163,-0.00708008,-0.00463867,0.997803,0.112027,0.167131,0.00956655
440173,-0.00732422,-0.00488281,0.998291,-0.0100434,0.228167,-0.143021
440183,-0.00732422,-0.00488281,0.997803,0.0204742,0.136614,0.101119
440193,-0.00732422,-0.00561523,0.998047,0.112027,-0.015974,0.162154
440203,-0.00732422,-0.00537109,0.997559,0.173062,-0.015974,-0.143021
440233,-0.00732422,-0.00488281,0.997559,-0.040561,0.106096,0.101119
440243,-0.00708008,-0.00488281,0.997314,0.264615,0.0145435,0.101119
440253,-0.00732422,-0.00537109,0.99707,0.0509918,0.0755787,0.131637
440283,-0.00708008,-0.00463867,0.998047,-0.040561,0.106096,0.101119
440293,-0.00756836,-0.00463867,0.997803,0.112027,0.0450611,-0.0514686
440303,-0.00756836,-0.00488281,0.997314,0.173062,-0.0770092,-0.0514686
440313,-0.00732422,-0.00463867,0.997314,0.112027,0.0145435,0.00956655
440323,-0.00708008,-0.00512695,0.997559,0.0509918,0.106096,-0.143021
440333,-0.00732422,-0.00512695,0.998047,0.20358,-0.0464916,-0.020951
440353,-0.00756836,-0.00512695,0.998047,0.0204742,-0.015974,0.00956655
440363,-0.00756836,-0.00463867,0.998047,-0.0100434,0.0755787,0.101119
440373,-0.00756836,-0.00463867,0.998535,0.0509918,-0.015974,0.0400841
440383,-0.00756836,-0.00463867,0.998535,-0.040561,0.106096,0.0706017
440393,-0.00732422,-0.00415039,0.998047,0.234097,-0.0464916,-0.0819862
440403,-0.00756836,-0.00463867,0.998291,0.20358,0.106096,0.0706017
440413,-0.00732422,-0.00463867,0.998047,0.142545,0.0755787,-0.112504
440423,-0.00732422,-0.00439453,0.997314,0.0509918,0.197649,0.101119
440433,-0.00756836,-0.00439453,0.996826,0.112027,0.0755787,-0.0514686
440443,-0.00732422,-0.00463867,0.996826,0.0815094,0.0450611,-0.0514686
440453,-0.00683594,-0.00439453,0.996338,0.142545,0.167131,0.101119
440463,-0.00708008,-0.00463867,0.996338,0.112027,0.0755787,-0.020951
440473,-0.00708008,-0.00488281,0.996826,0.234097,0.136614,0.00956655
440493,-0.00732422,-0.00463867,0.996826,0.112027,0.0450611,0.0706017
440503,-0.00708008,-0.00512695,0.996826,0.112027,-0.0464916,-0.143021
440513,-0.00683594,-0.00488281,0.99707,-0.0100434,0.0755787,0.192672
440523,-0.00683594,-0.00488281,0.997803,0.20358,0.0450611,0.0400841
440533,-0.00732422,-0.00463867,0.998047,0.0815094,0.228167,0.101119
440543,-0.00756836,-0.00488281,0.998047,-0.132114,0.106096,0.00956655
440553,-0.0078125,-0.00463867,0.998291,0.264615,0.0450611,0.0400841
440563,-0.00756836,-0.00463867,0.997803,-0.040561,-0.015974,-0.020951
440573,-0.00756836,-0.00463867,0.997803,0.20358,0.0145435,-0.0514686
440593,-0.00756836,-0.00488281,0.997559,0.173062,0.0755787,0.00956655
440603,-0.00732422,-0.00488281,0.997314,0.0815094,0.0755787,-0.0819862
440613,-0.00732422,-0.00488281,0.997803,0.112027,0.0450611,0.00956655
440623,-0.00708008,-0.00488281,0.997803,0.264615,-0.015974,-0.234574
440633,-0.00732422,-0.00488281,0.997803,0.142545,0.136614,-0.020951
440643,-0.00756836,-0.00512695,0.997559,0.0815094,0.0145435,0.00956655
440653,-0.00708008,-0.00512695,0.997559,0.20358,0.136614,0.00956655
440663,-0.00683594,-0.00512695,0.997803,0.142545,0.136614,0.101119
440673,-0.00708008,-0.00463867,0.998291,0.0815094,-0.015974,0.0400841
440683,-0.00683594,-0.00488281,0.998047,-0.0100434,0.0145435,-0.020951
440693,-0.00708008,-0.00488281,0.998047,0.295132,-0.0770092,0.0706017
440703,-0.00708008,-0.00512695,0.997314,0.234097,0.0755787,0.00956655
440713,-0.00683594,-0.00463867,0.998047,0.0815094,-0.0770092,0.0706017
440723,-0.00683594,-0.00488281,0.997803,0.0509918,0.0450611,0.00956655
440733,-0.00683594,-0.00439453,0.997803,0.20358,-0.015974,-0.020951
440743,-0.0065918,-0.00415039,0.998291,0.0815094,-0.015974,0.131637
440753,-0.00683594,-0.00463867,0.998291,-0.0100434,0.167131,0.00956655
440763,-0.00634766,-0.00488281,0.998291,0.20358,0.0450611,0.00956655
440773,-0.0065918,-0.00463867,0.998047,-0.040561,0.0145435,0.0400841
440783,-0.00634766,-0.00463867,0.998047,0.142545,0.0145435,-0.0514686
440793,-0.00634766,-0.00439453,0.998291,-0.0100434,0.0755787,0.0706017
440803,-0.0065918,-0.00439453,0.998047,0.20358,0.136614,0.0400841
440813,-0.0065918,-0.00439453,0.998047,0.142545,0.0145435,0.0400841
440823,-0.0065918,-0.00463867,0.997559,0.112027,0.0755787,0.0706017
440833,-0.00683594,-0.00463867,0.997314,0.0815094,0.106096,0.101119
440843,-0.00732422,-0.00439453,0.997314,0.142545,-0.0464916,-0.112504
440853,-0.00732422,-0.00415039,0.997559,0.0815094,-0.107527,0.00956655
440863,-0.00732422,-0.00439453,0.998047,0.20358,0.167131,0.0706017
440883,-0.00732422,-0.00439453,0.998291,0.0815094,0.0755787,-0.020951
440893,-0.00732422,-0.00463867,0.998291,0.0509918,-0.015974,0.0706017
440903,-0.00732422,-0.00463867,0.997559,0.142545,-0.015974,0.131637
440913,-0.00756836,-0.00463867,0.996826,0.112027,-0.0464916,-0.112504
440923,-0.00708008,-0.00463867,0.997559,0.112027,0.0755787,0.131637
440933,-0.00732422,-0.00415039,0.997803,-0.0100434,0.136614,0.00956655
440943,-0.00732422,-0.00415039,0.997559,0.142545,0.136614,0.22319
440953,-0.00708008,-0.00463867,0.997314,0.112027,0.0755787,-0.020951
440963,-0.00732422,-0.00463867,0.997559,-0.101596,-0.0464916,0.00956655
440973,-0.00732422,-0.00463867,0.997314,0.0815094,0.0755787,-0.143021
440983,-0.00683594,-0.00488281,0.997314,0.112027,0.0145435,0.101119
440993,-0.00708008,-0.00463867,0.99707,0.0815094,0.136614,0.0706017
441003,-0.00732422,-0.00463867,0.996582,0.20358,0.0145435,-0.0514686
441013,-0.00732422,-0.00463867,0.996826,0.173062,0.106096,0.0400841
441023,-0.00732422,-0.00463867,0.997559,0.142545,0.136614,0.00956655
441033,-0.00732422,-0.00463867,0.997314,-0.040561,0.0450611,0.00956655
441043,-0.00708008,-0.00439453,0.997559,0.0509918,0.0145435,0.0400841
441053,-0.00683594,-0.00415039,0.998291,0.20358,-0.0464916,-0.0819862
441063,-0.00708008,-0.00463867,0.998535,0.0204742,0.0450611,-0.020951
441073,-0.00683594,-0.00463867,0.998047,0.20358,-0.138044,0.0400841
441083,-0.0065918,-0.00439453,0.998291,0.112027,0.0450611,-0.0514686
441093,-0.00634766,-0.00463867,0.998047,0.20358,0.0145435,-0.020951
441103,-0.00708008,-0.00488281,0.998291,0.112027,-0.0464916,-0.0514686
441123,-0.00708008,-0.00488281,0.998535,0.112027,-0.0464916,-0.0514686
441153,-0.00683594,-0.00488281,0.999512,0.112027,0.106096,-0.0514686
441163,-0.00708008,-0.00463867,0.999512,0.112027,0.106096,-0.112504
441173,-0.00708008,-0.00390625,0.999023,-0.040561,0.106096,0.0400841
441183,-0.00683594,-0.00415039,0.998535,0.234097,0.0145435,-0.020951
441193,-0.00708008,-0.00415039,0.998535,0.112027,0.167131,0.0706017
441203,-0.00708008,-0.00415039,0.998047,0.142545,0.136614,0.00956655
441213,-0.00683594,-0.00415039,0.998291,0.0204742,0.0145435,-0.020951
441223,-0.00683594,-0.00439453,0.997803,0.0204742,0.0755787,0.101119
441233,-0.00708008,-0.00390625,0.998291,0.0509918,0.106096,0.00956655
441243,-0.00708008,-0.00463867,0.998047,0.0509918,0.0145435,0.131637
441253,-0.00708008,-0.00488281,0.998047,0.0509918,0.0450611,0.162154
441263,-0.0065918,-0.00488281,0.997314,0.173062,0.0450611,0.0400841
441283,-0.00683594,-0.00415039,0.997559,0.112027,0.136614,0.0400841
441323,-0.00732422,-0.00415039,0.998047,0.173062,0.0755787,-0.204057
441333,-0.00756836,-0.00463867,0.997314,0.112027,0.197649,0.00956655
441343,-0.00708008,-0.00463867,0.997314,0.142545,0.0450611,0.0400841
441363,-0.00708008,-0.00463867,0.998047,0.20358,0.0755787,-0.0514686
441383,-0.00708008,-0.00415039,0.997559,0.20358,-0.168562,0.162154
441403,-0.00708008,-0.00415039,0.998047,0.0815094,0.0450611,-0.0819862
441423,-0.00683594,-0.00415039,0.997803,0.112027,0.0755787,0.131637
441433,-0.00683594,-0.00415039,0.997559,0.112027,0.0755787,0.162154
441443,-0.00683594,-0.00463867,0.997559,0.0204742,0.0145435,-0.020951
441453,-0.00634766,-0.00439453,0.997559,-0.040561,0.0145435,0.131637
441463,-0.0065918,-0.00463867,0.997559,0.0509918,0.0450611,-0.020951
441513,-0.00610352,-0.00439453,0.997559,0.112027,0.0755787,0.0706017
441533,-0.00683594,-0.00439453,0.997803,0.112027,0.258684,-0.0514686
441543,-0.00683594,-0.00488281,0.998047,0.0509918,-0.0770092,-0.0819862
441553,-0.00634766,-0.00439453,0.997803,0.142545,0.0145435,0.192672
441583,-0.00585938,-0.00439453,0.99707,0.142545,0.106096,0.101119
441603,-0.00610352,-0.00439453,0.997314,0.0815094,0.0450611,0.101119
441623,-0.00561523,-0.00488281,0.99707,0.0815094,0.0755787,0.0706017
441663,-0.0065918,-0.00463867,0.997803,0.142545,0.0755787,-0.020951
441683,-0.0065918,-0.00463867,0.997559,0.0509918,0.0755787,0.00956655
441753,-0.00708008,-0.00512695,0.997314,-0.0100434,0.0145435,-0.0514686
441783,-0.00708008,-0.00512695,0.99707,0.295132,0.0755787,0.00956655
441823,-0.00683594,-0.00463867,0.997314,-0.040561,-0.015974,0.0400841
441833,-0.00683594,-0.00488281,0.997559,0.0815094,-0.107527,0.0706017
441843,-0.00708008,-0.00463867,0.997559,-0.0100434,0.0755787,0.101119
441873,-0.00683594,-0.00512695,0.998047,0.0815094,0.0145435,-0.112504
441883,-0.00634766,-0.00488281,0.997803,0.264615,-0.0464916,0.00956655
441913,-0.00683594,-0.00463867,0.997803,-0.0710785,-0.0770092,0.101119
441923,-0.00708008,-0.00463867,0.997559,0.0204742,0.0145435,0.0706017
441933,-0.00683594,-0.00488281,0.997803,0.0204742,0.0145435,0.0400841
441953,-0.00634766,-0.00537109,0.997559,0.112027,0.106096,0.101119
441983,-0.00683594,-0.00439453,0.997559,0.142545,0.167131,0.101119
441993,-0.0065918,-0.00439453,0.998291,-0.040561,0.0450611,-0.020951
442023,-0.00683594,-0.00488281,0.997803,0.0509918,-0.0770092,0.131637
442043,-0.00708008,-0.00488281,0.99707,-0.0100434,0.106096,0.0706017
442083,-0.00732422,-0.00512695,0.998047,0.0509918,-0.015974,-0.020951
442113,-0.0065918,-0.00512695,0.998535,0.20358,0.0755787,0.00956655
442153,-0.00756836,-0.00488281,0.998535,0.0815094,0.0450611,0.0400841
442183,-0.00683594,-0.00439453,0.998047,0.234097,0.0145435,0.22319
442213,-0.00708008,-0.00463867,0.998779,0.173062,-0.015974,-0.020951
442263,-0.00708008,-0.00488281,0.997803,0.112027,0.0450611,0.0706017
442293,-0.00732422,-0.00463867,0.998535,0.20358,0.0145435,-0.0819862
442313,-0.00805664,-0.00488281,0.997559,0.20358,0.0755787,-0.020951
442433,-0.00756836,-0.00463867,0.99707,-0.040561,0.0145435,0.131637
442493,-0.00708008,-0.00488281,0.99707,0.173062,0.167131,0.0706017
442513,-0.00683594,-0.00488281,0.997559,0.264615,0.0450611,0.0706017
442543,-0.00708008,-0.00463867,0.996826,0.142545,0.0145435,0.101119
442553,-0.0065918,-0.00488281,0.997559,0.20358,0.0450611,0.101119
442573,-0.00683594,-0.00463867,0.997314,0.0204742,0.0450611,0.00956655
442613,-0.00634766,-0.00488281,0.998047,0.0509918,0.106096,0.101119
442623,-0.00634766,-0.00488281,0.998535,0.142545,0.0145435,0.00956655
442643,-0.00634766,-0.00488281,0.998291,0.0204742,0.106096,0.0400841
442713,-0.00683594,-0.00512695,0.998535,0.112027,0.136614,0.101119
442723,-0.0065918,-0.00512695,0.998291,0.0204742,0.0450611,-0.173539
442743,-0.00708008,-0.00537109,0.998535,0.0509918,0.167131,-0.0819862
442763,-0.0065918,-0.00512695,0.998047,0.112027,-0.015974,0.0400841
442773,-0.0065918,-0.00488281,0.998047,0.0509918,0.0450611,0.101119
442783,-0.0065918,-0.00488281,0.998535,0.112027,0.0450611,0.00956655
442793,-0.00634766,-0.00488281,0.998291,0.112027,0.0755787,0.0400841
442813,-0.00634766,-0.00488281,0.998535,0.0204742,0.0145435,0.0706017
442823,-0.00634766,-0.00488281,0.998779,0.0204742,0.106096,0.00956655
442843,-0.00708008,-0.00439453,0.998047,0.0815094,-0.015974,-0.112504
442853,-0.00756836,-0.00488281,0.998047,0.173062,0.0755787,0.00956655
442883,-0.00708008,-0.00415039,0.999023,0.0204742,-0.015974,-0.0514686
442893,-0.00683594,-0.00415039,0.998779,0.0204742,0.0755787,0.0400841
442903,-0.0065918,-0.00415039,0.999023,0.0204742,0.0450611,-0.0514686
442913,-0.0065918,-0.00439453,0.999268,0.0815094,-0.0464916,0.0400841
442923,-0.0065918,-0.00439453,0.999023,0.234097,-0.0464916,0.0400841
442933,-0.00683594,-0.00463867,0.998535,0.142545,-0.0464916,-0.020951
442943,-0.00732422,-0.00488281,0.997803,0.0815094,0.136614,-0.020951
442953,-0.00732422,-0.00512695,0.997803,0.173062,0.0450611,0.131637
442963,-0.00756836,-0.00512695,0.997559,0.0509918,0.0450611,0.0706017
442973,-0.00732422,-0.00512695,0.998047,0.112027,0.0755787,0.101119
442983,-0.00732422,-0.00512695,0.997559,0.112027,-0.015974,-0.173539
443003,-0.00732422,-0.00488281,0.997803,0.0815094,0.106096,-0.0514686
443013,-0.00732422,-0.00512695,0.997803,0.20358,0.0755787,-0.0819862
443023,-0.00708008,-0.00537109,0.997559,0.0204742,-0.0770092,-0.020951
443033,-0.00756836,-0.00537109,0.998047,0.0815094,0.106096,-0.0514686
443043,-0.0078125,-0.00512695,0.998047,0.0204742,0.136614,0.00956655
443053,-0.00756836,-0.00512695,0.997559,0.142545,0.0450611,0.162154
443063,-0.00756836,-0.00512695,0.997559,0.173062,0.167131,-0.0514686
443073,-0.00732422,-0.00488281,0.997803,0.0509918,0.136614,0.101119
443083,-0.00708008,-0.00463867,0.998291,0.0509918,0.106096,0.192672
443103,-0.0065918,-0.00463867,0.998047,0.0815094,-0.138044,0.131637
443113,-0.00634766,-0.00439453,0.99707,0.0509918,0.0145435,0.0706017
443123,-0.00634766,-0.00439453,0.997803,0.20358,0.106096,0.162154
443133,-0.0065918,-0.00463867,0.997559,0.20358,0.106096,0.0706017
443143,-0.0065918,-0.00512695,0.997314,0.0204742,-0.0770092,-0.0514686
443153,-0.0065918,-0.00512695,0.99707,0.0509918,0.0755787,0.00956655
443163,-0.00708008,-0.00463867,0.996582,0.112027,0.106096,0.00956655
443173,-0.00708008,-0.00512695,0.997314,0.0204742,0.0755787,0.0706017
443183,-0.00683594,-0.00488281,0.997314,0.0815094,0.0755787,0.0400841
443193,-0.00708008,-0.00463867,0.997314,0.173062,-0.015974,0.101119
443203,-0.00708008,-0.00463867,0.996826,0.0815094,0.136614,-0.0514686
443213,-0.00732422,-0.00537109,0.996338,0.20358,-0.107527,0.0706017
443223,-0.00732422,-0.00488281,0.996338,-0.040561,0.136614,0.0400841
443233,-0.00683594,-0.00463867,0.996094,0.173062,0.106096,0.101119
443243,-0.00683594,-0.00439453,0.99585,0.264615,0.0755787,0.0706017
443253,-0.00708008,-0.00415039,0.995605,-0.0100434,0.106096,-0.020951
443263,-0.00708008,-0.00390625,0.99585,0.112027,0.106096,0.0400841
443273,-0.00756836,-0.00415039,0.996094,0.0815094,0.167131,0.00956655
443283,-0.00756836,-0.00439453,0.996338,0.0204742,0.0450611,0.0706017
443293,-0.00732422,-0.00439453,0.99707,0.0204742,0.0755787,-0.0514686
443303,-0.00708008,-0.00439453,0.997803,-0.101596,-0.015974,-0.0514686
443313,-0.00708008,-0.00463867,0.997803,0.173062,0.167131,0.192672
443323,-0.00732422,-0.00415039,0.998047,0.112027,0.0145435,0.0400841
443333,-0.00732422,-0.00463867,0.998535,0.0509918,0.0145435,0.00956655
443343,-0.00756836,-0.00488281,0.998291,0.20358,-0.015974,0.0400841
443363,-0.00732422,-0.00488281,0.997559,0.142545,0.0145435,-0.112504
443373,-0.00732422,-0.00537109,0.997803,-0.0710785,0.289202,0.192672
443383,-0.00732422,-0.00512695,0.998291,0.0815094,0.136614,-0.020951
443393,-0.00732422,-0.00488281,0.998047,0.0509918,-0.015974,-0.0514686
443403,-0.00756836,-0.00488281,0.997803,0.0815094,-0.015974,0.192672
443413,-0.00732422,-0.00463867,0.997559,0.142545,0.0755787,0.00956655
443423,-0.00708008,-0.00488281,0.997559,0.264615,-0.0770092,-0.112504
443433,-0.00708008,-0.00512695,0.99707,-0.0100434,-0.0464916,-0.0514686
443443,-0.00732422,-0.00537109,0.996826,0.264615,0.0145435,-0.020951
443453,-0.00732422,-0.00537109,0.996826,0.142545,0.0755787,0.00956655
443463,-0.00732422,-0.00512695,0.996582,0.0815094,0.106096,-0.112504
443473,-0.00756836,-0.00512695,0.996826,0.20358,0.0450611,0.0400841
443483,-0.00732422,-0.00537109,0.996826,0.112027,0.228167,0.0400841
443493,-0.00732422,-0.00537109,0.996826,0.0509918,0.106096,0.162154
443503,-0.00732422,-0.00537109,0.997314,0.112027,-0.015974,-0.0514686
443513,-0.00708008,-0.00512695,0.997314,0.0509918,-0.0464916,0.00956655
443533,-0.00683594,-0.00512695,0.997559,0.295132,-0.138044,0.131637
443543,-0.0065918,-0.00512695,0.997559,0.142545,0.106096,0.0400841
443553,-0.00683594,-0.00512695,0.997559,0.142545,-0.0464916,-0.0514686
443563,-0.0065918,-0.00463867,0.997314,-0.0100434,0.0755787,0.101119
443573,-0.0065918,-0.00463867,0.996826,0.0815094,0.0755787,0.131637
443583,-0.00634766,-0.00488281,0.997314,0.173062,0.0755787,0.101119
443593,-0.0065918,-0.00512695,0.996582,0.0204742,0.0145435,0.00956655
443603,-0.00683594,-0.00488281,0.996582,0.20358,0.0755787,0.0400841
443613,-0.00708008,-0.00415039,0.996826,0.112027,0.0145435,0.0706017
443623,-0.00732422,-0.00415039,0.99707,0.0815094,0.0450611,-0.020951
443633,-0.00708008,-0.00439453,0.996582,0.0509918,-0.015974,-0.0819862
443643,-0.00708008,-0.00415039,0.996338,0.0204742,0.0145435,0.00956655
443653,-0.00732422,-0.00439453,0.99585,0.0204742,0.106096,-0.020951
443663,-0.00732422,-0.00415039,0.996582,0.0815094,-0.015974,0.00956655
443673,-0.00756836,-0.00415039,0.99707,0.112027,0.0145435,0.101119
443683,-0.00756836,-0.00415039,0.99707,0.112027,0.0755787,0.00956655
443693,-0.00756836,-0.00439453,0.99707,0.234097,0.136614,0.101119
443703,-0.00732422,-0.00439453,0.99707,0.0509918,-0.0770092,-0.0819862
443713,-0.00708008,-0.00439453,0.99707,0.264615,0.0145435,0.0400841
443723,-0.0065918,-0.00488281,0.99707,0.264615,0.0145435,0.00956655
443733,-0.00732422,-0.00488281,0.996826,0.20358,0.136614,-0.0819862
443753,-0.00708008,-0.00488281,0.99707,0.20358,0.0145435,-0.0514686
443763,-0.00683594,-0.00512695,0.996582,0.0509918,-0.0464916,0.0400841
443773,-0.00708008,-0.00488281,0.996094,0.142545,0.136614,0.0400841
443793,-0.00732422,-0.00512695,0.996826,0.0204742,0.0755787,0.162154
443803,-0.00756836,-0.00488281,0.997314,0.142545,0.228167,0.0706017
443813,-0.00732422,-0.00439453,0.998047,0.20358,0.167131,0.00956655
443823,-0.00756836,-0.00463867,0.997314,0.142545,0.0755787,0.101119
443833,-0.00732422,-0.00463867,0.99707,0.142545,0.0755787,0.0706017
443843,-0.00732422,-0.00488281,0.99707,0.173062,0.136614,0.101119
443853,-0.00708008,-0.00463867,0.996826,0.234097,0.0145435,0.162154
443863,-0.00708008,-0.00439453,0.99707,0.20358,0.197649,-0.020951
443873,-0.00732422,-0.00463867,0.996826,0.142545,0.258684,0.00956655
443883,-0.00708008,-0.00463867,0.997314,0.264615,0.0145435,0.00956655
443893,-0.00732422,-0.00488281,0.997559,0.173062,-0.0464916,0.101119
443903,-0.00708008,-0.00463867,0.997314,0.0509918,-0.0770092,0.162154
443913,-0.00708008,-0.00488281,0.997314,0.0204742,-0.015974,0.0400841
443923,-0.00708008,-0.00512695,0.997314,0.0509918,0.228167,-0.0819862
443933,-0.00708008,-0.00537109,0.99707,0.0509918,0.136614,0.101119
443943,-0.00708008,-0.00561523,0.997559,0.0509918,0.136614,0.101119
443963,-0.00756836,-0.00488281,0.998047,0.0815094,0.106096,0.00956655
443973,-0.00756836,-0.00463867,0.998047,0.234097,0.0450611,-0.0819862
444013,-0.00708008,-0.00439453,0.996338,0.142545,-0.0464916,-0.0819862
444043,-0.00732422,-0.00463867,0.996582,0.0815094,0.0145435,0.0400841
444073,-0.00708008,-0.00463867,0.99707,0.112027,0.197649,0.00956655
444103,-0.00634766,-0.00463867,0.996826,0.0815094,-0.015974,0.0706017
444153,-0.00634766,-0.00463867,0.99707,0.0509918,0.258684,0.192672
444173,-0.0065918,-0.00463867,0.996826,0.0509918,0.167131,-0.112504
444203,-0.00634766,-0.00463867,0.99707,0.112027,0.228167,0.101119
444233,-0.00634766,-0.00512695,0.998047,0.0509918,0.0755787,0.162154
444253,-0.0065918,-0.00512695,0.997314,0.0509918,0.0145435,0.0400841
444313,-0.00708008,-0.00488281,0.996582,0.112027,-0.015974,0.101119
444333,-0.00683594,-0.00512695,0.99707,0.0815094,0.0145435,0.0400841
444343,-0.00708008,-0.00488281,0.996826,-0.132114,0.136614,0.00956655
444353,-0.00756836,-0.00463867,0.996826,0.0509918,-0.015974,-0.020951
444393,-0.00708008,-0.00463867,0.997314,0.0204742,0.0755787,0.0400841
444413,-0.00708008,-0.00415039,0.997803,0.112027,0.136614,-0.0514686
444423,-0.00683594,-0.00463867,0.997559,0.0509918,-0.015974,-0.0514686
444433,-0.00732422,-0.00463867,0.996826,0.264615,-0.0770092,-0.020951
444463,-0.00732422,-0.00488281,0.996826,0.142545,0.167131,0.101119
444523,-0.00708008,-0.00439453,0.996826,0.173062,0.0450611,0.192672
444533,-0.00708008,-0.00463867,0.996582,0.0509918,0.136614,0.0400841
444583,-0.00708008,-0.00488281,0.997314,0.0204742,0.0450611,-0.020951
444703,-0.00683594,-0.00439453,0.997803,-0.0100434,0.0450611,0.0400841
444733,-0.0065918,-0.00415039,0.998535,0.20358,0.197649,0.0706017
444743,-0.0065918,-0.00439453,0.998535,0.112027,0.0755787,0.101119
444833,-0.00683594,-0.00512695,0.997314,0.173062,0.0755787,0.101119
444843,-0.0065918,-0.00488281,0.997559,0.264615,0.136614,-0.0819862
444863,-0.0065918,-0.00488281,0.997314,0.0815094,0.106096,-0.0514686
444873,-0.0065918,-0.00463867,0.997803,0.0204742,0.0145435,-0.020951
444903,-0.00683594,-0.00488281,0.997803,0.173062,0.0145435,-0.143021
444953,-0.00683594,-0.00488281,0.99707,0.0815094,-0.0464916,0.0706017
445023,-0.00732422,-0.00512695,0.997559,0.142545,0.0450611,0.0400841
445043,-0.00732422,-0.00488281,0.997559,0.0509918,-0.0464916,0.162154
445093,-0.00732422,-0.00439453,0.996826,0.20358,-0.0464916,-0.112504
445113,-0.00756836,-0.00439453,0.99707,0.0815094,0.0755787,0.0400841
445143,-0.00683594,-0.00488281,0.997803,0.142545,0.0450611,0.0400841
445173,-0.00683594,-0.00488281,0.99707,0.142545,-0.107527,0.0400841
445223,-0.00708008,-0.00488281,0.99707,0.264615,0.0755787,0.0400841
445233,-0.00732422,-0.00463867,0.99707,0.234097,-0.107527,0.0400841
445243,-0.00732422,-0.00463867,0.996826,0.142545,0.0755787,-0.112504
445263,-0.00756836,-0.00390625,0.99707,0.0509918,0.106096,0.0400841
445273,-0.00756836,-0.00439453,0.997314,-0.0710785,0.0145435,0.101119
445283,-0.0078125,-0.00366211,0.997803,0.112027,0.0755787,-0.0514686
445293,-0.00732422,-0.00341797,0.997803,0.112027,-0.0770092,0.00956655
445313,-0.00708008,-0.00390625,0.997803,0.20358,0.0755787,-0.0514686
445343,-0.00756836,-0.00415039,0.997803,0.295132,-0.0464916,0.0706017
445373,-0.00683594,-0.00463867,0.998779,0.0509918,0.0145435,0.0400841
445383,-0.0065918,-0.00512695,0.997559,0.20358,0.136614,0.0706017
445423,-0.0065918,-0.00512695,0.996826,0.0509918,0.0145435,-0.020951
445443,-0.00683594,-0.00488281,0.997803,0.112027,-0.0464916,0.101119
445463,-0.00683594,-0.00512695,0.997559,0.0815094,0.0450611,0.0706017
445473,-0.00708008,-0.00488281,0.996826,0.142545,0.197649,0.131637
445503,-0.00732422,-0.00463867,0.997803,0.0815094,0.136614,0.0706017
445533,-0.00756836,-0.00463867,0.998047,0.0815094,0.167131,-0.112504
445573,-0.00708008,-0.00463867,0.99707,0.112027,0.106096,0.101119
445593,-0.00708008,-0.00488281,0.998047,0.0509918,0.106096,0.00956655
445603,-0.00708008,-0.00463867,0.998535,0.112027,0.0450611,0.0400841
445613,-0.00683594,-0.00488281,0.998047,0.173062,0.106096,0.00956655
445623,-0.00708008,-0.00488281,0.997803,0.112027,0.0450611,0.00956655
445633,-0.00708008,-0.00512695,0.99707,0.142545,0.0145435,0.131637
445643,-0.00708008,-0.00512695,0.997803,0.112027,0.0145435,0.0400841
445663,-0.00708008,-0.00463867,0.998047,0.173062,0.136614,-0.0514686
445673,-0.00708008,-0.00463867,0.998047,-0.0100434,0.136614,0.0706017
445683,-0.00732422,-0.00439453,0.998047,0.173062,0.167131,-0.0514686
445703,-0.00708008,-0.00463867,0.997803,0.173062,0.136614,0.00956655
445713,-0.00708008,-0.00439453,0.998047,0.0815094,0.0145435,0.00956655
445723,-0.00683594,-0.00439453,0.998291,0.0815094,0.0755787,0.0400841
445733,-0.0065918,-0.00463867,0.997803,-0.0100434,0.0755787,0.0400841
445743,-0.00683594,-0.00488281,0.997803,0.173062,-0.0464916,0.0706017
445753,-0.00708008,-0.00463867,0.997803,0.142545,0.197649,0.22319
445763,-0.00732422,-0.00463867,0.997803,0.0815094,0.106096,0.0400841
445773,-0.00732422,-0.00439453,0.998047,0.142545,0.136614,-0.0514686
445783,-0.00732422,-0.00415039,0.998291,0.0204742,0.0450611,0.131637
445793,-0.00683594,-0.00390625,0.997559,0.264615,0.106096,-0.112504
445803,-0.00683594,-0.00415039,0.997314,0.112027,0.0755787,-0.020951
445813,-0.00683594,-0.00463867,0.997803,0.112027,0.167131,0.00956655
445823,-0.00634766,-0.00463867,0.997559,0.173062,0.0450611,-0.0514686
445833,-0.00708008,-0.00463867,0.997803,0.0509918,0.0755787,0.0400841
445843,-0.0065918,-0.00512695,0.998291,0.112027,0.0450611,-0.0514686
445853,-0.00683594,-0.00512695,0.998291,0.0815094,0.106096,0.131637
445863,-0.00634766,-0.00488281,0.997803,0.0815094,-0.015974,0.0400841
445873,-0.00634766,-0.00512695,0.996826,-0.0100434,-0.0464916,0.101119
445883,-0.0065918,-0.00512695,0.996826,0.0815094,0.0755787,-0.020951
445893,-0.00732422,-0.00512695,0.997314,0.264615,0.0450611,0.101119
445903,-0.00683594,-0.00488281,0.997314,0.0815094,0.0145435,0.131637
445913,-0.0065918,-0.00512695,0.997559,0.112027,0.0450611,0.101119
445923,-0.00708008,-0.00488281,0.997803,-0.040561,0.106096,-0.0514686
445933,-0.00708008,-0.00463867,0.997803,0.112027,0.0450611,0.101119
445943,-0.00708008,-0.00439453,0.998291,0.295132,0.136614,0.00956655
445963,-0.00683594,-0.00463867,0.997314,0.112027,0.0450611,0.0400841
445973,-0.0065918,-0.00488281,0.996582,0.142545,0.136614,0.101119
445983,-0.0065918,-0.00512695,0.996582,-0.101596,0.197649,0.0706017
445993,-0.00683594,-0.00537109,0.997314,-0.101596,0.106096,-0.020951
446003,-0.00708008,-0.00512695,0.997314,0.32565,-0.168562,-0.112504
446023,-0.00708008,-0.00463867,0.996826,0.0509918,-0.0770092,0.101119
446033,-0.00732422,-0.00512695,0.996826,0.173062,0.106096,-0.020951
446043,-0.00683594,-0.00512695,0.996094,0.0204742,0.0450611,0.00956655
446053,-0.0065918,-0.00512695,0.996582,0.112027,0.228167,0.00956655
446063,-0.00683594,-0.00488281,0.996582,0.112027,0.0450611,0.00956655
446083,-0.00732422,-0.00512695,0.996582,0.0509918,0.0755787,0.0706017
446093,-0.00708008,-0.00512695,0.996338,0.112027,-0.015974,0.0400841
446103,-0.00708008,-0.00488281,0.996582,0.264615,-0.0464916,0.0706017
446113,-0.00732422,-0.00463867,0.996094,0.0204742,0.197649,-0.0819862
446123,-0.00756836,-0.00463867,0.996338,0.173062,-0.0464916,0.00956655
446133,-0.00756836,-0.00463867,0.99707,0.0509918,0.0145435,0.0706017
446143,-0.0078125,-0.00439453,0.99707,0.142545,0.0755787,0.0400841
446153,-0.0078125,-0.00439453,0.99707,0.0204742,-0.0770092,-0.0514686
446163,-0.00756836,-0.00488281,0.997314,-0.0710785,0.167131,0.0400841
446173,-0.00732422,-0.00488281,0.99707,0.142545,0.106096,0.131637
446183,-0.0065918,-0.00488281,0.997314,0.142545,-0.138044,0.00956655
446193,-0.00708008,-0.00488281,0.997559,0.0509918,0.0450611,0.00956655
446203,-0.0065918,-0.00439453,0.998047,0.142545,-0.0464916,-0.0514686
446223,-0.00683594,-0.00439453,0.998047,0.0509918,-0.015974,0.131637
446233,-0.00683594,-0.00415039,0.997803,0.142545,0.167131,0.0400841
446243,-0.00683594,-0.00463867,0.998047,0.142545,0.0450611,0.0400841
446253,-0.00732422,-0.00463867,0.997803,-0.0100434,-0.0464916,-0.0514686
446263,-0.00732422,-0.00488281,0.998047,0.0815094,0.0450611,-0.173539
446273,-0.00708008,-0.00463867,0.997803,-0.0100434,0.167131,0.00956655
446283,-0.00683594,-0.00415039,0.997314,0.142545,0.0145435,0.162154
446293,-0.00683594,-0.00415039,0.99707,-0.0100434,0.0145435,-0.020951
446303,-0.0065918,-0.00390625,0.997314,-0.101596,0.106096,-0.173539
446313,-0.00634766,-0.00390625,0.99707,0.0509918,0.106096,0.00956655
446323,-0.0065918,-0.00390625,0.996826,-0.0100434,0.0145435,-0.143021
446333,-0.0065918,-0.00415039,0.996826,-0.040561,0.0755787,0.101119
446353,-0.00683594,-0.00415039,0.996338,0.112027,-0.015974,-0.020951
446373,-0.00683594,-0.00463867,0.996582,0.0509918,0.0450611,0.0706017
446383,-0.00708008,-0.00488281,0.99707,0.112027,-0.107527,-0.112504
446403,-0.00732422,-0.00488281,0.997803,0.142545,-0.0464916,0.00956655
446413,-0.0078125,-0.00439453,0.997803,-0.101596,0.228167,0.00956655
446423,-0.00732422,-0.00488281,0.997559,0.112027,0.228167,0.192672
446433,-0.00756836,-0.00488281,0.998047,0.20358,0.106096,0.0400841
446443,-0.00756836,-0.00463867,0.997314,0.0815094,0.0450611,0.101119
446453,-0.00756836,-0.00463867,0.996826,0.112027,0.167131,0.162154
446463,-0.00732422,-0.00463867,0.996094,0.173062,0.0755787,0.131637
446473,-0.0078125,-0.00439453,0.99585,-0.040561,0.167131,0.0706017
446493,-0.00756836,-0.00415039,0.996338,0.264615,0.0145435,0.00956655
446503,-0.00732422,-0.00415039,0.99585,0.173062,0.106096,0.0706017
446513,-0.00708008,-0.00415039,0.996338,-0.040561,0.167131,0.0706017
446533,-0.00732422,-0.00463867,0.996826,-0.0710785,0.258684,0.00956655
446543,-0.00708008,-0.00463867,0.99707,0.0204742,0.228167,0.00956655
446553,-0.00708008,-0.00488281,0.997314,0.173062,0.0755787,0.131637
446563,-0.00732422,-0.00488281,0.997559,0.0815094,0.0145435,-0.020951
446573,-0.00708008,-0.00439453,0.997803,0.264615,0.0755787,0.00956655
446583,-0.00732422,-0.00463867,0.997559,0.112027,0.106096,-0.0819862
446593,-0.00683594,-0.00463867,0.997559,0.0204742,0.136614,0.101119
446623,-0.00732422,-0.00463867,0.997559,0.0509918,0.0755787,-0.020951
446633,-0.00732422,-0.00463867,0.997314,0.0204742,0.106096,-0.173539
446643,-0.00732422,-0.00488281,0.996826,0.0204742,0.167131,0.0706017
446663,-0.00732422,-0.00463867,0.99707,0.112027,0.106096,0.00956655
446683,-0.00756836,-0.00439453,0.997314,0.112027,0.0145435,0.0400841
446723,-0.00732422,-0.00488281,0.996338,0.112027,0.0145435,0.0706017
446733,-0.00708008,-0.00488281,0.996094,0.0204742,-0.0464916,-0.0514686
446753,-0.0065918,-0.00488281,0.996582,0.0815094,-0.0464916,0.0706017
446773,-0.0065918,-0.00488281,0.996582,0.173062,0.0450611,-0.0514686
446793,-0.00708008,-0.00512695,0.996826,0.112027,0.106096,0.0706017
446833,-0.00732422,-0.00463867,0.996826,0.0815094,-0.015974,0.00956655
446843,-0.00732422,-0.00512695,0.996826,0.0509918,-0.015974,-0.020951
446853,-0.00732422,-0.00537109,0.997559,0.142545,0.0145435,0.0400841
446893,-0.0065918,-0.00561523,0.996826,0.142545,0.136614,0.0706017
446923,-0.00708008,-0.00537109,0.998291,0.0509918,0.0145435,0.101119
446983,-0.00756836,-0.00488281,0.996826,-0.0100434,0.0145435,0.101119
447013,-0.00708008,-0.00463867,0.997559,0.112027,0.197649,-0.0819862
447113,-0.00683594,-0.00488281,0.996826,-0.0710785,0.0755787,0.0400841
447243,-0.00683594,-0.00415039,0.997803,0.0815094,0.0755787,-0.112504
447283,-0.00708008,-0.00439453,0.997803,0.173062,0.0145435,-0.143021
447303,-0.00683594,-0.00488281,0.99707,0.0204742,-0.0464916,-0.0514686
447353,-0.00683594,-0.00488281,0.99707,-0.040561,0.136614,-0.0514686
447383,-0.00732422,-0.00463867,0.997314,0.0815094,-0.0464916,-0.0819862
447513,-0.0065918,-0.00488281,0.997803,0.0509918,0.136614,0.162154
447623,-0.00634766,-0.00537109,0.99707,0.142545,0.106096,0.0706017
447703,-0.00683594,-0.00463867,0.99707,0.0815094,0.0145435,-0.173539
447723,-0.0065918,-0.00439453,0.997803,0.173062,0.0755787,0.0400841
447733,-0.00634766,-0.00439453,0.997314,0.112027,-0.0464916,0.101119
447753,-0.0065918,-0.00463867,0.997314,-0.0100434,0.0755787,-0.0514686
447853,-0.00683594,-0.00439453,0.997314,0.20358,0.0755787,0.0706017
447923,-0.00683594,-0.00390625,0.99707,0.112027,0.167131,-0.0514686
447933,-0.00683594,-0.00415039,0.997314,0.234097,0.106096,0.0400841
447963,-0.0065918,-0.00390625,0.996826,0.112027,0.0145435,0.101119
447993,-0.00683594,-0.00463867,0.99707,0.173062,0.0450611,0.192672
448013,-0.0065918,-0.00439453,0.99585,0.0204742,0.106096,0.253707
448033,-0.0065918,-0.00488281,0.996094,0.0815094,0.106096,0.0706017
448053,-0.0065918,-0.00463867,0.996826,0.264615,0.0450611,0.131637
448093,-0.00732422,-0.00439453,0.99707,0.112027,-0.0770092,0.101119
448123,-0.00708008,-0.00463867,0.997559,0.20358,-0.015974,0.00956655
448153,-0.00683594,-0.00463867,0.998535,0.112027,0.167131,0.0400841
448173,-0.00683594,-0.00439453,0.997559,0.0204742,0.0755787,0.131637
448193,-0.00634766,-0.00488281,0.996826,0.0815094,0.106096,0.0400841
448203,-0.0065918,-0.00488281,0.99707,0.142545,0.167131,0.0400841
448213,-0.00634766,-0.00488281,0.997314,-0.101596,0.136614,-0.0819862
448233,-0.00634766,-0.00488281,0.99707,-0.040561,0.0450611,0.101119
448243,-0.00634766,-0.00512695,0.997559,0.0204742,0.106096,0.0400841
448253,-0.0065918,-0.00488281,0.99707,0.0815094,0.0145435,0.0706017
448273,-0.0065918,-0.00488281,0.996338,-0.040561,0.197649,-0.020951
448283,-0.00634766,-0.00488281,0.996582,-0.040561,0.0450611,0.162154
448293,-0.00708008,-0.00512695,0.996338,0.0815094,0.167131,0.00956655
448303,-0.00732422,-0.00463867,0.996094,-0.0100434,0.136614,-0.0819862
448313,-0.00756836,-0.00463867,0.996094,-0.040561,-0.0770092,0.0400841
448323,-0.00732422,-0.00463867,0.996582,0.142545,0.0450611,-0.0514686
448333,-0.00683594,-0.00488281,0.99707,0.0815094,0.0145435,-0.143021
448343,-0.00708008,-0.00463867,0.996582,0.142545,0.197649,0.00956655
448353,-0.00683594,-0.00488281,0.997559,-0.040561,-0.0770092,0.0706017
448363,-0.0065918,-0.00488281,0.997803,0.112027,-0.015974,-0.020951
448373,-0.00634766,-0.00463867,0.997559,0.234097,0.0755787,0.0706017
448383,-0.0065918,-0.00463867,0.997559,0.142545,0.167131,0.101119
448393,-0.00610352,-0.00463867,0.99707,-0.040561,0.0755787,0.131637
448403,-0.00634766,-0.00488281,0.99707,0.173062,0.0755787,-0.0514686
448413,-0.00634766,-0.00463867,0.996826,0.112027,0.0145435,-0.020951
448423,-0.00634766,-0.00463867,0.99707,0.356168,-0.0464916,-0.0514686
448433,-0.00634766,-0.00488281,0.997803,0.112027,0.0755787,0.0400841
448443,-0.0065918,-0.00488281,0.997559,0.173062,0.0755787,0.101119
448453,-0.00634766,-0.00488281,0.997559,0.173062,-0.015974,0.192672
448463,-0.00634766,-0.00537109,0.997803,0.173062,0.167131,0.00956655
448473,-0.00634766,-0.00537109,0.998047,0.173062,0.0145435,0.0706017
448483,-0.0065918,-0.00561523,0.997314,0.0204742,0.197649,0.101119
448493,-0.00683594,-0.00537109,0.99707,0.0815094,0.197649,-0.0819862
448503,-0.00683594,-0.00537109,0.99707,0.0815094,0.136614,0.101119
448513,-0.00683594,-0.00512695,0.996338,0.142545,-0.015974,-0.0514686
448523,-0.00683594,-0.00512695,0.996338,0.173062,0.106096,0.0706017
448533,-0.0065918,-0.00488281,0.99707,0.0509918,0.0145435,-0.020951
448543,-0.00634766,-0.00488281,0.99707,0.173062,-0.015974,0.162154
