t,accx,accy,accz,gyrox,gyroy,gyroz
429067,-0.00146484,-0.00390625,1.00366,-0.0390112,0.033617,-0.106692
429077,-0.00146484,-0.00415039,1.00342,-0.130564,-0.0579357,-0.0151396
429087,-0.0012207,-0.00439453,1.00293,0.0525415,0.0641346,0.015378
429097,-0.00170898,-0.00463867,1.00317,0.113577,0.00309944,0.0764132
429107,-0.00195312,-0.00488281,1.00317,0.0220239,0.00309944,-0.0151396
429117,-0.00146484,-0.00488281,1.00269,0.113577,0.00309944,-0.106692
429137,-0.00219727,-0.00488281,1.00317,-0.0390112,0.0946522,-0.0761747
429147,-0.00170898,-0.00463867,1.00317,-0.161082,0.12517,0.0764132
429157,-0.00195312,-0.00488281,1.00415,0.0525415,0.033617,-0.106692
429177,-0.0012207,-0.00439453,1.00317,0.144094,0.0641346,-0.0151396
429187,-0.000976562,-0.00415039,1.00366,0.0525415,-0.0579357,-0.13721
429207,-0.0012207,-0.00463867,1.00366,0.0830591,-0.118971,0.015378
429217,-0.000732422,-0.00488281,1.00342,-0.0695288,0.00309944,-0.198245
429227,-0.0012207,-0.00439453,1.00366,0.0525415,0.12517,0.106931
429257,-0.000976562,-0.00439453,1.00342,0.0525415,0.0641346,-0.0456572
429267,-0.0012207,-0.00415039,1.00366,-0.00849366,0.033617,-0.13721
429277,-0.000976562,-0.00415039,1.00391,-0.00849366,-0.0274181,0.0458956
429287,-0.000488281,-0.00439453,1.00391,0.0525415,-0.0579357,-0.167727
429297,-0.000976562,-0.00439453,1.00366,0.0220239,-0.0274181,0.106931
429307,-0.000976562,-0.00463867,1.00317,-0.0390112,-0.0274181,-0.198245
429317,-0.000976562,-0.00488281,1.00342,-0.0390112,0.033617,0.0764132
429347,-0.0012207,-0.00415039,1.00342,0.113577,0.00309944,-0.0456572
429357,-0.000976562,-0.00366211,1.00366,0.144094,-0.0579357,-0.0456572
429367,-0.000976562,-0.00390625,1.00293,-0.100046,0.12517,0.0458956
429377,-0.000732422,-0.00415039,1.00391,0.0220239,-0.0579357,-0.0456572
429387,-0.000732422,-0.00415039,1.00391,0.0220239,0.033617,0.015378
429397,-0.000976562,-0.00390625,1.00342,0.0220239,-0.0579357,-0.0761747
429407,-0.0012207,-0.00415039,1.00366,0.0830591,0.00309944,0.167966
429427,-0.000976562,-0.00366211,1.00366,0.0525415,0.00309944,-0.0151396
429457,-0.00146484,-0.00390625,1.00391,-0.00849366,-0.0884533,-0.0151396
429497,-0.00146484,-0.00390625,1.00366,0.113577,0.155687,0.106931
429507,-0.0012207,-0.00439453,1.00317,0.0220239,0.0641346,-0.0761747
429517,-0.0012207,-0.00439453,1.00366,0.174612,0.12517,-0.167727
429537,-0.000976562,-0.00415039,1.00439,-0.0390112,0.0946522,-0.0456572
429557,-0.000732422,-0.00341797,1.00415,0.0220239,0.186205,0.0458956
429567,-0.000976562,-0.00366211,1.00342,0.174612,0.00309944,-0.0761747
429597,-0.00146484,-0.00390625,1.00317,0.205129,0.12517,0.229001
429627,-0.000732422,-0.00439453,1.00317,0.0220239,-0.0274181,-0.0151396
429637,-0.000976562,-0.00439453,1.00366,-0.130564,0.0641346,0.0458956
429647,-0.000976562,-0.00439453,1.00342,0.113577,0.00309944,0.0458956
429657,-0.0012207,-0.00463867,1.00366,-0.00849366,-0.0884533,0.015378
429667,-0.0012207,-0.00463867,1.00439,-0.00849366,-0.0274181,0.0764132
429687,-0.000976562,-0.00463867,1.00391,0.0830591,0.033617,-0.0456572
429707,-0.000732422,-0.00463867,1.00366,0.0220239,0.0946522,0.106931
429717,-0.000976562,-0.00463867,1.00391,0.0525415,-0.0274181,0.0458956
429727,-0.0012207,-0.00439453,1.00415,-0.0695288,0.12517,-0.0151396
429737,-0.0012207,-0.00439453,1.00391,-0.0390112,0.186205,-0.0456572
429757,-0.0012207,-0.00415039,1.00391,0.0220239,0.033617,0.106931
429767,-0.0012207,-0.00415039,1.00415,0.0220239,-0.0579357,0.015378
429777,-0.0012207,-0.00439453,1.00464,0.0830591,0.12517,-0.0151396
429787,-0.00146484,-0.00439453,1.00366,0.144094,0.0641346,0.015378
429807,-0.00146484,-0.00415039,1.00366,-0.00849366,0.0946522,-0.0761747
429817,-0.0012207,-0.00439453,1.00366,0.144094,-0.149488,0.0764132
429837,-0.000976562,-0.00463867,1.00342,-0.00849366,0.033617,-0.0456572
429847,-0.0012207,-0.00463867,1.00342,0.0830591,-0.118971,-0.106692
429867,-0.00146484,-0.00439453,1.00366,0.0220239,0.033617,0.0458956
429887,-0.00146484,-0.00415039,1.00439,0.113577,-0.0274181,0.0458956
429897,-0.00146484,-0.00415039,1.00439,-0.0695288,-0.118971,-0.0761747
429927,-0.00146484,-0.00390625,1.00415,0.0525415,0.0641346,-0.13721
429947,-0.0012207,-0.00463867,1.00366,-0.100046,0.0641346,-0.13721
429957,-0.00146484,-0.00463867,1.00293,0.0830591,0.00309944,-0.0151396
429967,-0.0012207,-0.00488281,1.00293,-0.0390112,0.0946522,-0.0151396
430007,-0.00146484,-0.00439453,1.00366,-0.0390112,0.0641346,0.106931
430017,-0.00146484,-0.00439453,1.00342,0.0525415,0.033617,0.015378
430027,-0.0012207,-0.00463867,1.00317,-0.0390112,0.00309944,-0.0151396
430037,-0.000976562,-0.00439453,1.00391,0.0830591,-0.0274181,-0.0456572
430047,-0.00170898,-0.00439453,1.00342,0.144094,0.033617,-0.13721
430057,-0.00170898,-0.00415039,1.00317,0.113577,-0.0884533,-0.0761747
430077,-0.00170898,-0.00439453,1.00317,0.0220239,0.12517,0.0458956
430087,-0.00146484,-0.00390625,1.00317,-0.0695288,0.0946522,-0.0456572
430097,-0.00146484,-0.00390625,1.00317,0.0830591,0.0946522,0.0458956
430107,-0.00170898,-0.00415039,1.00269,0.0525415,-0.0579357,0.0458956
430117,-0.0012207,-0.00415039,1.00293,0.144094,0.0641346,-0.0456572
430127,-0.00146484,-0.00415039,1.00293,0.0220239,-0.0274181,0.229001
430137,-0.00146484,-0.00415039,1.00366,0.0830591,0.0946522,0.015378
430147,-0.00146484,-0.00390625,1.00366,0.0220239,0.12517,0.015378
430157,-0.0012207,-0.00390625,1.00317,0.113577,0.0946522,0.015378
430167,-0.000976562,-0.00415039,1.00244,0.0830591,0.0641346,0.0458956
430177,-0.0012207,-0.00415039,1.0022,0.0220239,-0.0274181,0.106931
430187,-0.000976562,-0.00390625,1.00195,-0.0390112,0.0641346,-0.0761747
430197,-0.00146484,-0.00390625,1.0022,0.0525415,0.12517,-0.0761747
430207,-0.0012207,-0.00439453,1.00195,0.0830591,-0.0579357,-0.106692
430217,-0.00146484,-0.00439453,1.0022,-0.100046,0.0946522,0.0458956
430227,-0.00146484,-0.00390625,1.00244,0.0525415,0.033617,-0.0456572
430237,-0.00195312,-0.00415039,1.00317,-0.100046,-0.0884533,-0.0151396
430247,-0.00170898,-0.00415039,1.00293,-0.0390112,0.186205,-0.0456572
430257,-0.00170898,-0.00390625,1.00269,0.205129,0.00309944,0.0458956
430267,-0.00195312,-0.00390625,1.00244,-0.0695288,0.12517,0.015378
430277,-0.00146484,-0.00439453,1.0022,-0.0390112,0.0641346,0.0764132
430287,-0.00195312,-0.00439453,1.0022,-0.0695288,0.155687,0.015378
430297,-0.00195312,-0.00463867,1.00146,0.144094,-0.0884533,0.137448
430307,-0.00219727,-0.00439453,1.00171,-0.00849366,0.12517,-0.0761747
430317,-0.00195312,-0.00415039,1.0022,0.0220239,0.033617,-0.0151396
430327,-0.00146484,-0.00390625,1.00244,0.0830591,-0.149488,0.0764132
430337,-0.0012207,-0.00415039,1.00269,0.0525415,0.033617,-0.106692
430347,-0.0012207,-0.00415039,1.00269,0.0830591,0.12517,-0.13721
430357,-0.0012207,-0.00390625,1.00244,0.0830591,0.033617,-0.0456572
430367,-0.0012207,-0.00415039,1.00244,-0.0390112,0.033617,0.167966
430377,-0.0012207,-0.00415039,1.00317,0.0220239,0.00309944,0.015378
430387,-0.0012207,-0.00439453,1.00195,0.0220239,0.033617,0.0458956
430397,-0.00170898,-0.00463867,1.0022,0.113577,-0.149488,0.0764132
430407,-0.00195312,-0.00439453,1.00293,0.0830591,0.0641346,0.015378
430417,-0.00195312,-0.00390625,1.00269,0.0220239,0.033617,0.137448
430437,-0.00219727,-0.00366211,1.00366,0.0220239,-0.149488,0.0458956
430447,-0.00195312,-0.00390625,1.00366,0.0220239,0.033617,0.0764132
430457,-0.00195312,-0.00390625,1.00342,0.0220239,0.00309944,-0.0761747
430467,-0.00195312,-0.00415039,1.00317,0.0525415,0.12517,0.0458956
430477,-0.00195312,-0.00390625,1.00366,0.0830591,0.00309944,-0.0761747
430487,-0.00170898,-0.00390625,1.00415,0.0220239,0.12517,0.167966
430497,-0.00170898,-0.00366211,1.00415,0.113577,-0.0274181,-0.0761747
430507,-0.00170898,-0.00390625,1.00366,0.113577,0.0641346,-0.0456572
430517,-0.00195312,-0.00390625,1.00439,-0.130564,0.0641346,0.106931
430527,-0.00170898,-0.00366211,1.00415,-0.130564,-0.0579357,0.015378
430537,-0.00170898,-0.00390625,1.00391,0.113577,0.155687,0.0458956
430547,-0.00170898,-0.00366211,1.00415,-0.00849366,-0.0884533,0.0458956
430557,-0.00195312,-0.00366211,1.00391,0.0830591,-0.0579357,-0.106692
430567,-0.00219727,-0.00341797,1.00366,0.144094,0.033617,0.0458956
430577,-0.00219727,-0.00317383,1.00391,-0.0390112,-0.0274181,0.0764132
430587,-0.00219727,-0.00341797,1.00439,0.113577,0.0946522,-0.106692
430597,-0.00219727,-0.00341797,1.00366,0.113577,0.0946522,-0.0151396
430607,-0.00219727,-0.00341797,1.00366,-0.00849366,0.0946522,0.015378
430617,-0.00195312,-0.00390625,1.00317,0.235647,0.00309944,0.015378
430627,-0.00219727,-0.00390625,1.00317,-0.00849366,0.00309944,-0.106692
430637,-0.00195312,-0.00439453,1.00293,0.144094,-0.0274181,-0.0761747
430647,-0.00195312,-0.00415039,1.00293,0.0830591,0.12517,-0.0151396
430657,-0.00219727,-0.00415039,1.00269,-0.0390112,0.0946522,0.0458956
430667,-0.00195312,-0.00390625,1.00342,-0.0390112,0.00309944,-0.106692
430677,-0.00219727,-0.00341797,1.00269,0.113577,0.0641346,-0.13721
430687,-0.00195312,-0.00390625,1.00269,0.144094,0.00309944,-0.0151396
430697,-0.00195312,-0.00390625,1.00293,0.0525415,-0.0884533,0.106931
430707,-0.00170898,-0.00415039,1.00293,0.0525415,0.00309944,-0.0456572
430717,-0.00146484,-0.00415039,1.00269,-0.0695288,-0.0274181,0.015378
430727,-0.00170898,-0.00390625,1.00293,-0.0390112,0.186205,-0.106692
430737,-0.00146484,-0.00390625,1.00317,0.0220239,0.155687,0.137448
430747,-0.0012207,-0.00390625,1.00317,-0.0390112,0.12517,-0.0456572
430757,-0.0012207,-0.00415039,1.00269,-0.100046,-0.0274181,-0.0151396
430767,-0.0012207,-0.00390625,1.00317,0.0830591,0.033617,-0.0761747
430777,-0.00146484,-0.00415039,1.00342,0.113577,-0.0274181,-0.0761747
430787,-0.00146484,-0.00415039,1.00366,0.0220239,0.0641346,0.106931
430797,-0.00146484,-0.00415039,1.00391,0.0220239,0.00309944,-0.13721
430807,-0.00170898,-0.00415039,1.00342,-0.00849366,0.033617,-0.106692
430817,-0.00195312,-0.00366211,1.00317,0.113577,-0.0884533,0.0764132
430827,-0.00170898,-0.00390625,1.00366,0.0525415,-0.180006,-0.0456572
430837,-0.00170898,-0.00341797,1.00317,0.113577,0.033617,0.137448
430847,-0.00219727,-0.00366211,1.00317,-0.0390112,-0.0274181,-0.0151396
430857,-0.00219727,-0.00390625,1.00293,0.0830591,-0.0274181,-0.0456572
430867,-0.00219727,-0.00366211,1.00244,0.113577,-0.0579357,-0.0456572
430877,-0.00170898,-0.00390625,1.0022,0.0220239,0.033617,0.0458956
430887,-0.00195312,-0.00366211,1.00244,0.113577,-0.149488,0.0764132
430907,-0.00146484,-0.00366211,1.00269,0.0220239,0.155687,-0.0456572
430917,-0.0012207,-0.00341797,1.00244,0.0220239,-0.149488,-0.106692
430937,-0.0012207,-0.00390625,1.00293,0.0830591,0.033617,0.0458956
430947,-0.00146484,-0.00390625,1.00244,-0.0695288,0.0641346,0.137448
430957,-0.00146484,-0.00366211,1.00317,0.113577,0.033617,0.106931
430967,-0.00146484,-0.00390625,1.00293,0.144094,0.033617,0.0458956
430977,-0.0012207,-0.00415039,1.00269,-0.100046,0.155687,0.015378
431007,-0.0012207,-0.00390625,1.00342,-0.100046,0.186205,0.290036
431017,-0.0012207,-0.00390625,1.00342,-0.0390112,-0.0274181,0.0764132
431027,-0.000976562,-0.00366211,1.00317,0.0220239,0.0641346,0.106931
431047,-0.0012207,-0.00463867,1.00171,0.0830591,0.033617,-0.0456572
431067,-0.0012207,-0.00439453,1.00171,0.144094,-0.0579357,0.015378
431077,-0.00146484,-0.00415039,1.00195,0.205129,0.155687,-0.167727
431087,-0.0012207,-0.00390625,1.00293,0.0830591,0.155687,0.167966
431097,-0.00170898,-0.00366211,1.00293,0.0830591,0.00309944,0.0764132
431107,-0.00170898,-0.00366211,1.00317,0.0525415,0.0946522,0.015378
431117,-0.00170898,-0.00341797,1.00317,0.113577,0.033617,-0.167727
431127,-0.00219727,-0.00366211,1.00317,0.144094,0.12517,0.0764132
431137,-0.00170898,-0.00390625,1.00317,0.0220239,0.186205,0.0458956
431147,-0.00170898,-0.00439453,1.00269,-0.100046,-0.0579357,-0.13721
431157,-0.00146484,-0.00439453,1.00293,0.0525415,-0.0579357,-0.25928
431177,-0.00170898,-0.00415039,1.0022,0.0525415,-0.0579357,-0.0151396
431187,-0.00170898,-0.00463867,1.00244,0.144094,0.0946522,0.0458956
431197,-0.00219727,-0.00463867,1.00269,0.0830591,0.0946522,-0.0456572
431207,-0.00195312,-0.00439453,1.00269,0.0830591,-0.0274181,-0.13721
431217,-0.00170898,-0.00439453,1.00244,0.144094,0.00309944,0.0764132
431227,-0.0012207,-0.00415039,1.00317,-0.0390112,0.033617,-0.0151396
431237,-0.00170898,-0.00415039,1.00342,0.0220239,0.0946522,0.0764132
431247,-0.00195312,-0.00415039,1.00342,0.174612,-0.0579357,0.106931
431257,-0.00146484,-0.00366211,1.00293,-0.00849366,0.12517,0.0458956
431267,-0.00146484,-0.00415039,1.00293,-0.0695288,0.155687,-0.0761747
431277,-0.00170898,-0.00390625,1.00317,0.113577,0.033617,-0.0456572
431287,-0.00195312,-0.00439453,1.00317,0.0525415,-0.0274181,0.0764132
431307,-0.00219727,-0.00415039,1.00391,0.0220239,-0.0274181,-0.0761747
431317,-0.00219727,-0.00439453,1.00366,0.0220239,0.00309944,-0.0151396
431327,-0.00195312,-0.00439453,1.00342,0.144094,0.0641346,-0.0151396
431337,-0.00195312,-0.00415039,1.00366,0.0830591,0.033617,0.0458956
431357,-0.0012207,-0.00439453,1.00464,0.0220239,-0.180006,-0.0151396
431367,-0.00170898,-0.00439453,1.00415,-0.0695288,0.00309944,-0.0456572
431377,-0.0012207,-0.00415039,1.00415,0.113577,0.0641346,0.106931
431397,-0.000976562,-0.00415039,1.00342,0.0220239,-0.0274181,-0.0456572
431407,-0.000976562,-0.00390625,1.00415,0.0830591,0.00309944,-0.0456572
431417,-0.000488281,-0.00390625,1.00415,0.0525415,0.033617,0.0764132
431427,-0.000976562,-0.00366211,1.00415,0.0220239,0.0946522,-0.0151396
431437,-0.0012207,-0.00390625,1.00464,-0.00849366,0.00309944,0.015378
431447,-0.00146484,-0.00366211,1.00415,0.0220239,0.0641346,0.167966
431457,-0.00170898,-0.00341797,1.00366,-0.00849366,0.155687,-0.0456572
431467,-0.00219727,-0.00366211,1.00317,-0.100046,0.0641346,0.015378
431477,-0.00219727,-0.00341797,1.00342,0.144094,-0.0274181,0.015378
431487,-0.00170898,-0.00341797,1.00269,0.0525415,0.0641346,-0.0151396
431497,-0.00146484,-0.00366211,1.00269,-0.00849366,0.00309944,-0.0761747
431507,-0.00170898,-0.00415039,1.00269,0.0525415,0.00309944,0.015378
431517,-0.00219727,-0.00439453,1.00269,0.0220239,-0.0274181,-0.0151396
431527,-0.00146484,-0.00463867,1.00293,-0.0390112,-0.0579357,-0.0151396
431537,-0.0012207,-0.00439453,1.00293,0.0220239,0.0641346,0.0764132
431557,-0.00146484,-0.00439453,1.00342,-0.100046,0.033617,-0.167727
431577,-0.00170898,-0.00439453,1.00317,0.0220239,-0.0884533,-0.106692
431587,-0.00219727,-0.00463867,1.00317,-0.0390112,-0.0579357,-0.13721
431597,-0.00170898,-0.00439453,1.00317,0.0220239,-0.0274181,0.015378
431607,-0.00195312,-0.00415039,1.00342,-0.0695288,-0.0579357,-0.0151396
431617,-0.00146484,-0.00415039,1.00366,0.0525415,0.00309944,0.015378
431627,-0.00146484,-0.00415039,1.00366,-0.0390112,-0.0579357,0.0764132
431637,-0.0012207,-0.00415039,1.00415,0.144094,-0.0579357,0.0764132
431647,-0.000976562,-0.00390625,1.00439,-0.0390112,0.155687,-0.0151396
431657,-0.000732422,-0.00415039,1.00464,0.0525415,0.186205,-0.0151396
431667,-0.000732422,-0.00366211,1.00439,-0.00849366,-0.180006,-0.0456572
431677,-0.000976562,-0.00390625,1.00439,0.113577,0.0946522,0.015378
431687,-0.000732422,-0.00366211,1.00391,0.0220239,0.0946522,0.0764132
431697,-0.000732422,-0.00341797,1.00415,-0.00849366,0.033617,0.0764132
431707,-0.000976562,-0.00390625,1.00366,0.0220239,0.00309944,0.137448
431717,-0.0012207,-0.00415039,1.00342,0.0220239,0.0641346,0.106931
431727,-0.0012207,-0.00439453,1.00366,-0.100046,0.0641346,0.137448
431737,-0.000976562,-0.00439453,1.00391,0.0220239,-0.0884533,0.137448
431747,-0.00146484,-0.00463867,1.00391,-0.0390112,-0.0579357,0.015378
431757,-0.00170898,-0.00463867,1.00415,-0.00849366,-0.0274181,0.106931
431767,-0.00146484,-0.00488281,1.00415,0.0830591,0.0946522,-0.0456572
431777,-0.0012207,-0.00512695,1.00439,-0.00849366,0.12517,-0.0151396
431787,-0.000976562,-0.00463867,1.00415,0.0525415,0.12517,-0.106692
431797,-0.000976562,-0.00488281,1.00391,0.0220239,0.0946522,-0.106692
431807,-0.0012207,-0.00463867,1.00391,0.0830591,0.00309944,0.106931
431817,-0.0012207,-0.00439453,1.00366,0.113577,0.12517,-0.106692
431827,-0.0012207,-0.00439453,1.00342,-0.00849366,0.24724,-0.106692
431837,-0.000976562,-0.00415039,1.00391,0.0525415,-0.118971,0.106931
431847,-0.000976562,-0.00415039,1.00391,0.0220239,-0.0884533,0.0458956
431857,-0.0012207,-0.00390625,1.00366,0.0525415,0.12517,0.015378
431867,-0.00146484,-0.00366211,1.00317,-0.00849366,0.00309944,0.015378
431877,-0.00146484,-0.00366211,1.00317,0.0525415,0.12517,-0.0761747
431887,-0.00146484,-0.00366211,1.00317,0.0220239,0.0946522,-0.0761747
431897,-0.00170898,-0.00366211,1.00244,-0.00849366,0.12517,-0.13721
431907,-0.00170898,-0.00390625,1.00293,0.0525415,-0.0579357,0.015378
431917,-0.00170898,-0.00390625,1.00317,-0.0695288,0.033617,0.015378
431927,-0.00195312,-0.00415039,1.00293,0.144094,0.0641346,0.0458956
431937,-0.0012207,-0.00390625,1.00317,0.0220239,-0.0884533,-0.13721
431947,-0.00146484,-0.00415039,1.00317,0.0830591,0.155687,0.106931
431957,-0.0012207,-0.00415039,1.00269,0.0220239,0.0641346,0.0764132
431967,-0.00146484,-0.00415039,1.00317,-0.00849366,0.12517,-0.106692
431977,-0.0012207,-0.00463867,1.00269,-0.130564,0.00309944,-0.167727
431987,-0.0012207,-0.00463867,1.00244,-0.00849366,0.00309944,-0.0761747
431997,-0.00146484,-0.00463867,1.00269,0.144094,0.00309944,0.0764132
432007,-0.000976562,-0.00463867,1.00342,0.0525415,-0.0274181,-0.0151396
432017,-0.000976562,-0.00488281,1.00366,0.0830591,-0.118971,-0.13721
432027,-0.00146484,-0.00488281,1.00269,0.0525415,0.0641346,0.0764132
432037,-0.00146484,-0.00415039,1.00269,-0.0390112,-0.0579357,0.0458956
432047,-0.0012207,-0.00390625,1.00244,0.0830591,-0.210524,0.137448
432057,-0.00146484,-0.00415039,1.00269,0.0830591,0.00309944,-0.106692
432067,-0.00146484,-0.00415039,1.00244,0.0525415,0.00309944,0.0458956
432077,-0.00170898,-0.00415039,1.0022,0.113577,-0.0274181,0.0458956
432087,-0.00146484,-0.00390625,1.00244,0.0525415,0.0946522,0.106931
432097,-0.00170898,-0.00439453,1.00269,0.0830591,0.033617,-0.0761747
432117,-0.00146484,-0.00390625,1.00293,0.205129,0.0946522,-0.0151396
432127,-0.0012207,-0.00390625,1.00317,-0.0390112,0.0946522,0.0458956
432137,-0.0012207,-0.00415039,1.00366,0.0830591,0.12517,-0.0761747
432147,-0.00146484,-0.00439453,1.00415,0.205129,0.033617,0.0764132
432157,-0.00146484,-0.00415039,1.00464,0.0525415,-0.0884533,0.0764132
432167,-0.00146484,-0.00415039,1.00488,0.0525415,0.033617,-0.0456572
432177,-0.00146484,-0.00415039,1.00415,0.0525415,0.0641346,-0.106692
432187,-0.0012207,-0.00390625,1.00488,0.0220239,-0.0579357,0.0764132
432197,-0.00195312,-0.00390625,1.00537,0.0220239,0.0946522,0.015378
432207,-0.00170898,-0.00341797,1.00537,0.0525415,0.0946522,0.106931
432217,-0.00170898,-0.00390625,1.00464,0.113577,0.0641346,-0.106692
432227,-0.00170898,-0.00390625,1.00415,0.0525415,0.0641346,0.015378
432237,-0.0012207,-0.00390625,1.00391,0.0220239,0.0641346,0.167966
432247,-0.000732422,-0.00390625,1.00513,0.0220239,0.033617,-0.0456572
432267,-0.0012207,-0.00366211,1.00464,-0.100046,0.00309944,0.137448
432277,-0.00170898,-0.00366211,1.00391,-0.100046,0.00309944,-0.0151396
432287,-0.00146484,-0.00415039,1.00415,0.174612,0.0641346,-0.13721
432297,-0.00146484,-0.00415039,1.00391,-0.100046,0.00309944,0.0458956
432307,-0.00170898,-0.00415039,1.00415,0.0525415,0.216722,0.0764132
432317,-0.00146484,-0.00390625,1.00391,0.113577,0.0946522,0.106931
432327,-0.000976562,-0.00390625,1.00415,0.0830591,0.00309944,0.015378
432337,-0.000976562,-0.00415039,1.00366,-0.0390112,0.0946522,0.0458956
432347,-0.000732422,-0.00415039,1.00366,0.0830591,0.12517,-0.0761747
432357,-0.000732422,-0.00390625,1.00269,-0.0695288,0.0946522,-0.198245
432367,-0.000488281,-0.00415039,1.00293,0.0525415,0.12517,0.0764132
432377,-0.000732422,-0.00415039,1.00293,0.0525415,0.0641346,0.015378
432387,-0.000732422,-0.00415039,1.00317,0.0525415,0.0946522,0.015378
432397,-0.000732422,-0.00390625,1.00317,-0.100046,0.00309944,-0.0151396
432407,-0.000488281,-0.00390625,1.00317,-0.00849366,0.033617,-0.0151396
432417,-0.000732422,-0.00415039,1.00391,0.0220239,0.0641346,-0.0151396
432427,-0.000488281,-0.00415039,1.00439,0.0525415,0.0946522,0.0764132
432437,-0.000732422,-0.00439453,1.00488,0.0220239,0.033617,-0.198245
432447,-0.000732422,-0.00415039,1.00415,0.0830591,0.00309944,0.137448
432467,-0.000976562,-0.00390625,1.00415,-0.00849366,-0.0274181,0.0458956
432477,-0.0012207,-0.00366211,1.00464,0.0525415,0.0641346,0.0458956
432487,-0.0012207,-0.00390625,1.00391,-0.0390112,0.0641346,0.0458956
432497,-0.000732422,-0.00341797,1.00391,-0.0390112,-0.0884533,-0.0151396
432507,-0.000976562,-0.00390625,1.00366,0.113577,0.0946522,0.137448
432517,-0.0012207,-0.00415039,1.00391,-0.00849366,0.0641346,-0.0151396
432527,-0.000976562,-0.00415039,1.00342,0.0525415,-0.0884533,0.015378
432537,-0.0012207,-0.00341797,1.00342,0.0525415,-0.0274181,0.0458956
432547,-0.000976562,-0.00366211,1.00293,-0.00849366,0.0641346,0.106931
432567,-0.000976562,-0.00366211,1.00293,0.0525415,0.0946522,-0.0151396
432577,-0.0012207,-0.00390625,1.00269,0.174612,0.0946522,-0.0151396
432587,-0.000976562,-0.00439453,1.00342,0.0830591,0.12517,0.106931
432617,-0.000976562,-0.00415039,1.00391,0.0830591,0.0946522,0.015378
432637,-0.000732422,-0.00390625,1.00366,-0.00849366,-0.0579357,-0.0761747
432647,-0.00146484,-0.00415039,1.00439,0.0220239,0.155687,-0.167727
432667,-0.0012207,-0.00390625,1.00366,-0.0390112,0.0641346,0.0458956
432687,-0.0012207,-0.00390625,1.00342,0.113577,-0.0579357,-0.0151396
432697,-0.00170898,-0.00415039,1.00391,-0.00849366,0.00309944,0.167966
432707,-0.00170898,-0.00415039,1.00342,0.0220239,0.033617,0.015378
432717,-0.0012207,-0.00415039,1.00391,-0.0390112,0.0946522,-0.0761747
432727,-0.000976562,-0.00415039,1.00415,0.144094,0.12517,0.0458956
432737,-0.000732422,-0.00366211,1.00391,0.144094,0.033617,0.0458956
432747,-0.000732422,-0.00390625,1.00366,-0.00849366,0.216722,-0.0456572
432757,-0.000244141,-0.00415039,1.00391,0.0830591,-0.0884533,-0.0456572
432777,-0.000976562,-0.00439453,1.00366,-0.00849366,0.033617,-0.0151396
432787,-0.0012207,-0.00439453,1.00391,0.0525415,0.00309944,-0.0456572
432797,-0.000976562,-0.00415039,1.00391,-0.00849366,0.12517,0.0458956
432807,-0.000732422,-0.00439453,1.00342,0.113577,-0.0274181,-0.0151396
432827,-0.000976562,-0.00439453,1.00317,-0.00849366,-0.0884533,-0.0761747
432837,-0.0012207,-0.00439453,1.00244,0.144094,0.0641346,0.0458956
432877,-0.00170898,-0.00366211,1.00244,-0.00849366,-0.0274181,-0.13721
432897,-0.00170898,-0.00390625,1.00293,0.144094,0.00309944,0.0458956
432907,-0.00170898,-0.00390625,1.00366,-0.00849366,0.12517,-0.0456572
432937,-0.00170898,-0.00439453,1.00415,-0.00849366,-0.0274181,-0.106692
432947,-0.00146484,-0.00439453,1.00391,-0.0390112,0.0641346,0.015378
432967,-0.0012207,-0.00390625,1.00391,0.235647,-0.0274181,-0.0761747
432977,-0.00170898,-0.00390625,1.00342,0.0830591,-0.0274181,-0.167727
432987,-0.0012207,-0.00366211,1.00293,-0.0390112,0.00309944,0.0764132
432997,-0.00146484,-0.00341797,1.00244,0.0525415,0.033617,-0.167727
433007,-0.00170898,-0.00341797,1.00244,-0.0695288,-0.180006,-0.0456572
433017,-0.00146484,-0.00341797,1.00269,0.0525415,0.0641346,-0.106692
433037,-0.00146484,-0.00341797,1.00366,0.113577,0.00309944,-0.0151396
433047,-0.00170898,-0.00366211,1.00293,0.0830591,0.033617,0.106931
433057,-0.0012207,-0.00366211,1.00293,-0.0390112,-0.0274181,-0.0456572
433067,-0.00146484,-0.00341797,1.00269,0.0525415,0.00309944,-0.106692
433097,-0.00195312,-0.00366211,1.00342,-0.0390112,-0.118971,0.015378
433107,-0.00195312,-0.00390625,1.00342,0.0525415,0.0641346,-0.0151396
433117,-0.00195312,-0.00390625,1.00366,-0.0695288,0.12517,-0.0456572
433137,-0.00146484,-0.00366211,1.00342,0.0830591,-0.118971,-0.0456572
433147,-0.0012207,-0.00341797,1.00317,0.113577,0.00309944,-0.167727
433157,-0.00146484,-0.00341797,1.00342,0.144094,0.0641346,0.0458956
433167,-0.00146484,-0.00366211,1.00366,-0.0695288,0.0946522,0.0764132
433177,-0.00146484,-0.00341797,1.00488,-0.00849366,0.0641346,0.015378
433197,-0.0012207,-0.00390625,1.00391,0.205129,0.186205,-0.106692
433207,-0.0012207,-0.00366211,1.00391,0.0525415,0.12517,0.015378
433217,-0.000976562,-0.00390625,1.00342,-0.0695288,0.0641346,-0.0151396
433227,-0.0012207,-0.00341797,1.00317,-0.00849366,-0.0274181,-0.106692
433237,-0.0012207,-0.00341797,1.00293,-0.00849366,0.00309944,-0.0151396
433247,-0.00170898,-0.00390625,1.00293,-0.0390112,-0.0274181,0.015378
433257,-0.00170898,-0.00390625,1.00342,-0.0390112,0.0641346,-0.0456572
433267,-0.00170898,-0.00390625,1.00244,0.174612,0.033617,0.0764132
433277,-0.00146484,-0.00366211,1.00269,0.113577,0.00309944,-0.13721
433287,-0.0012207,-0.00390625,1.00317,-0.100046,-0.0579357,0.015378
433297,-0.00146484,-0.00390625,1.00269,0.174612,0.12517,0.0458956
433307,-0.0012207,-0.00390625,1.00342,0.0220239,0.155687,-0.0761747
433317,-0.000976562,-0.00366211,1.00366,0.0220239,0.033617,-0.0456572
433327,-0.000976562,-0.00341797,1.00317,0.0525415,0.12517,-0.0761747
433337,-0.000732422,-0.00341797,1.00366,-0.100046,-0.0274181,-0.0761747
433347,-0.000488281,-0.00292969,1.00342,-0.130564,0.00309944,0.106931
433357,-0.000976562,-0.00341797,1.00342,0.0525415,0.00309944,0.015378
433367,-0.000976562,-0.00366211,1.00342,0.0220239,0.0641346,-0.0151396
433377,-0.000732422,-0.00415039,1.00366,-0.00849366,0.0946522,-0.0151396
433387,-0.000976562,-0.00439453,1.00342,-0.130564,0.00309944,-0.13721
433397,-0.000732422,-0.00390625,1.00342,-0.0695288,0.00309944,0.137448
433407,-0.000976562,-0.00439453,1.00342,0.0525415,0.00309944,-0.0761747
433417,-0.000732422,-0.00415039,1.00366,0.0830591,0.00309944,0.015378
433437,-0.00146484,-0.00439453,1.00317,0.0525415,-0.0274181,0.0764132
433447,-0.0012207,-0.00415039,1.00317,-0.130564,0.033617,0.0458956
433457,-0.000976562,-0.00390625,1.00269,0.0830591,-0.0274181,-0.0761747
433467,-0.000732422,-0.00390625,1.00342,0.144094,0.12517,0.015378
433477,-0.000976562,-0.00463867,1.00391,-0.00849366,0.00309944,0.015378
433487,-0.000976562,-0.00463867,1.00391,0.144094,0.00309944,-0.0456572
433497,-0.0012207,-0.00439453,1.00342,-0.0390112,-0.0884533,0.0458956
433507,-0.000976562,-0.00415039,1.00342,0.113577,0.12517,-0.167727
433517,-0.0012207,-0.00415039,1.00317,-0.0390112,0.155687,-0.0456572
433527,-0.000976562,-0.00439453,1.00342,0.0220239,0.033617,-0.0456572
433537,-0.000976562,-0.00439453,1.00293,0.0830591,0.033617,-0.0761747
433557,-0.000732422,-0.00415039,1.00342,0.144094,0.0641346,-0.0151396
433567,-0.000732422,-0.00463867,1.00391,0.144094,0.0641346,-0.0456572
433577,-0.000488281,-0.00512695,1.00366,-0.0695288,0.00309944,-0.0151396
433587,-0.000732422,-0.00488281,1.00366,0.0220239,0.0946522,0.015378
433597,-0.000976562,-0.00463867,1.00391,0.0220239,0.0946522,-0.0151396
433607,-0.00146484,-0.00488281,1.00342,0.0525415,0.00309944,0.0458956
433617,-0.00146484,-0.00488281,1.00391,0.0525415,0.186205,-0.0151396
433637,-0.00146484,-0.00463867,1.00317,0.0525415,0.0641346,-0.106692
433647,-0.00170898,-0.00488281,1.00342,-0.0695288,-0.0884533,-0.0761747
433657,-0.00146484,-0.00439453,1.00342,0.113577,-0.0274181,0.0764132
433667,-0.00170898,-0.00439453,1.00366,0.0525415,0.155687,0.015378
433677,-0.00195312,-0.00463867,1.00317,-0.0695288,0.0641346,0.0764132
433687,-0.00170898,-0.00439453,1.00342,-0.00849366,0.00309944,0.015378
433697,-0.00170898,-0.00390625,1.00269,0.0830591,0.0946522,0.0458956
433707,-0.00146484,-0.00366211,1.00342,0.174612,-0.0579357,0.015378
433717,-0.000732422,-0.00390625,1.00342,0.0525415,-0.0884533,0.106931
433727,-0.000976562,-0.00366211,1.00342,0.113577,-0.118971,-0.0151396
433737,-0.0012207,-0.00390625,1.00366,-0.0695288,-0.0274181,0.0458956
433747,-0.00146484,-0.00390625,1.00317,-0.00849366,0.12517,0.015378
433757,-0.00146484,-0.00341797,1.00342,-0.0390112,0.033617,0.015378
433767,-0.00170898,-0.00366211,1.00342,0.113577,0.0641346,0.137448
433777,-0.00146484,-0.00366211,1.00342,0.0220239,-0.0579357,-0.0456572
433787,-0.00170898,-0.00366211,1.00317,-0.0390112,-0.0884533,-0.106692
433807,-0.00146484,-0.00366211,1.00293,0.205129,-0.0274181,-0.0761747
433817,-0.00146484,-0.00366211,1.00244,0.144094,0.033617,0.0764132
433827,-0.00146484,-0.00366211,1.00293,0.144094,-0.0274181,-0.0456572
433837,-0.00146484,-0.00341797,1.00293,0.113577,0.0641346,0.137448
433847,-0.00170898,-0.00341797,1.00269,0.0525415,0.277758,-0.13721
433857,-0.00170898,-0.00366211,1.00317,0.296682,-0.0884533,0.015378
433877,-0.0012207,-0.00341797,1.00342,0.0830591,0.033617,0.015378
433887,-0.0012207,-0.00317383,1.00293,0.0830591,0.00309944,0.137448
433907,-0.00146484,-0.00317383,1.00244,0.0830591,0.0946522,0.137448
433927,-0.00146484,-0.00415039,1.00195,-0.0390112,-0.149488,-0.0456572
433947,-0.00146484,-0.00415039,1.00195,-0.00849366,0.033617,0.0458956
433957,-0.0012207,-0.00415039,1.00244,0.0830591,0.186205,0.137448
433967,-0.00146484,-0.00415039,1.00269,0.0830591,0.033617,-0.0761747
433987,-0.00170898,-0.00439453,1.00269,0.0525415,0.00309944,0.015378
433997,-0.00219727,-0.00415039,1.00269,-0.0695288,0.0641346,-0.0761747
434007,-0.00219727,-0.00390625,1.00269,-0.00849366,0.0641346,-0.0456572
434017,-0.00268555,-0.00415039,1.00293,0.0830591,0.0641346,-0.106692
434027,-0.00244141,-0.00366211,1.00244,0.0525415,0.033617,0.0458956
434037,-0.00244141,-0.00390625,1.00269,0.0525415,-0.0274181,0.015378
434047,-0.00195312,-0.00366211,1.00269,0.0525415,-0.0274181,0.106931
434077,-0.00146484,-0.00366211,1.00317,0.144094,0.0641346,0.137448
434087,-0.00146484,-0.00341797,1.00342,0.0830591,0.0946522,0.015378
434097,-0.000976562,-0.00366211,1.00293,0.205129,0.0946522,0.106931
434107,-0.000976562,-0.00341797,1.00293,0.113577,-0.0884533,-0.13721
434117,-0.000488281,-0.00366211,1.00366,0.0220239,0.0946522,-0.106692
434127,-0.000732422,-0.00317383,1.00366,0.0220239,0.0641346,-0.0456572
434147,-0.000976562,-0.00366211,1.00293,-0.0695288,0.00309944,0.015378
434157,-0.0012207,-0.00341797,1.00293,0.174612,-0.0274181,-0.0456572
434177,-0.0012207,-0.00390625,1.00269,0.0830591,0.033617,0.015378
434187,-0.0012207,-0.00390625,1.00269,0.0525415,-0.0274181,0.015378
434207,-0.00170898,-0.00390625,1.0022,-0.0390112,-0.0579357,0.167966
434217,-0.00170898,-0.00341797,1.00195,-0.0695288,0.00309944,-0.0151396
434227,-0.0012207,-0.00390625,1.0022,-0.130564,-0.0274181,0.015378
434237,-0.000732422,-0.00415039,1.0022,0.113577,0.033617,-0.13721
434247,-0.000976562,-0.00390625,1.00293,-0.0695288,-0.0579357,0.015378
434277,-0.000732422,-0.00439453,1.00269,0.0220239,-0.118971,-0.0151396
434297,-0.0012207,-0.00463867,1.00317,-0.00849366,-0.0274181,0.015378
434307,-0.000732422,-0.00488281,1.00342,0.0220239,0.0946522,0.259519
434327,-0.000732422,-0.00439453,1.00293,-0.100046,0.0946522,-0.0456572
434347,-0.000732422,-0.00390625,1.00244,0.144094,0.033617,-0.0151396
434377,-0.000976562,-0.00415039,1.00366,0.0830591,0.0641346,-0.0456572
434387,-0.00170898,-0.00415039,1.00342,-0.00849366,-0.0274181,-0.0151396
434397,-0.00146484,-0.00390625,1.00342,0.0525415,0.00309944,-0.13721
434417,-0.00170898,-0.00415039,1.00415,0.144094,0.0641346,-0.0151396
434427,-0.00219727,-0.00415039,1.00342,0.0220239,0.0641346,-0.0151396
434447,-0.00170898,-0.00415039,1.00366,0.113577,0.033617,0.015378
434457,-0.00170898,-0.00415039,1.00317,-0.0390112,0.00309944,0.106931
434467,-0.00146484,-0.00366211,1.00317,-0.00849366,0.0946522,0.167966
434477,-0.0012207,-0.00390625,1.00293,-0.00849366,0.0641346,0.0458956
434487,-0.00146484,-0.00415039,1.00293,0.0525415,0.0641346,-0.106692
434517,-0.00195312,-0.00415039,1.00391,0.113577,0.00309944,-0.106692
434527,-0.00195312,-0.00415039,1.00391,-0.00849366,0.00309944,-0.13721
434537,-0.00195312,-0.00439453,1.00342,0.113577,0.0946522,0.0764132
434557,-0.00170898,-0.00390625,1.00391,0.0525415,0.033617,0.0458956
434567,-0.00146484,-0.00366211,1.00439,-0.00849366,0.0641346,-0.0761747
434597,-0.00146484,-0.00390625,1.00366,-0.0390112,-0.0579357,0.0458956
434607,-0.0012207,-0.00366211,1.00342,-0.00849366,0.0641346,-0.0761747
434617,-0.0012207,-0.00341797,1.00342,0.0220239,-0.0884533,0.0458956
434637,-0.000732422,-0.00366211,1.00366,-0.00849366,-0.0884533,-0.106692
434657,-0.0012207,-0.00341797,1.00366,-0.00849366,0.0641346,0.015378
434677,-0.0012207,-0.00366211,1.00366,0.113577,0.0946522,0.015378
434687,-0.00146484,-0.00366211,1.00415,0.0830591,0.0641346,-0.0761747
434707,-0.00195312,-0.00415039,1.00366,0.113577,-0.0884533,-0.106692
434717,-0.00195312,-0.00390625,1.00342,-0.00849366,0.033617,0.015378
434727,-0.00195312,-0.00415039,1.00342,-0.00849366,0.12517,0.015378
434737,-0.00170898,-0.00439453,1.00342,0.144094,0.00309944,-0.0151396
434747,-0.00195312,-0.00439453,1.00391,-0.0390112,0.0641346,-0.0456572
434757,-0.00146484,-0.00415039,1.00342,0.0220239,0.00309944,-0.0761747
434767,-0.00170898,-0.00439453,1.00269,-0.00849366,0.0946522,-0.0761747
434787,-0.00170898,-0.00463867,1.0022,-0.0695288,-0.0274181,0.015378
434797,-0.00146484,-0.00463867,1.0022,-0.130564,0.186205,-0.0151396
434807,-0.00170898,-0.00488281,1.00269,0.0525415,0.033617,-0.0151396
434817,-0.00195312,-0.00488281,1.00269,0.0220239,0.0641346,0.137448
434827,-0.00195312,-0.00488281,1.00244,0.0830591,-0.0274181,-0.106692
434837,-0.00170898,-0.00512695,1.0022,0.174612,0.0946522,0.137448
434847,-0.00170898,-0.00488281,1.00244,-0.00849366,-0.149488,-0.0761747
434857,-0.00170898,-0.00488281,1.0022,-0.0390112,-0.0579357,0.015378
434867,-0.00195312,-0.00463867,1.00269,0.0830591,-0.0884533,-0.13721
434877,-0.00244141,-0.00488281,1.00244,-0.00849366,0.0641346,0.106931
434887,-0.00195312,-0.00439453,1.0022,0.113577,-0.0579357,-0.0761747
434897,-0.00195312,-0.00439453,1.00244,0.0830591,0.033617,0.0458956
434907,-0.00195312,-0.00439453,1.00293,0.0525415,0.00309944,-0.0151396
434917,-0.00170898,-0.00439453,1.00244,-0.00849366,0.0946522,0.0764132
434927,-0.00146484,-0.00463867,1.00244,0.0220239,0.033617,-0.0456572
434937,-0.00195312,-0.00439453,1.00244,0.235647,0.0946522,0.0458956
434947,-0.00170898,-0.00439453,1.00293,0.0830591,0.155687,-0.13721
434957,-0.00170898,-0.00463867,1.00244,0.0830591,0.033617,0.0458956
434967,-0.00170898,-0.00463867,1.00269,0.0525415,0.00309944,-0.0151396
434977,-0.0012207,-0.00415039,1.00269,0.0220239,0.0641346,-0.0456572
434987,-0.00146484,-0.00439453,1.00244,-0.0390112,0.0946522,-0.0456572
435007,-0.00146484,-0.00439453,1.00195,0.113577,0.0946522,-0.0761747
435017,-0.00170898,-0.00488281,1.0022,0.113577,-0.0884533,-0.0151396
435027,-0.00146484,-0.00488281,1.00269,-0.00849366,-0.0274181,-0.0456572
435037,-0.00195312,-0.00512695,1.00269,0.0220239,0.033617,0.0764132
435047,-0.00170898,-0.00512695,1.00269,0.0525415,0.00309944,-0.0456572
435057,-0.00170898,-0.00512695,1.00269,0.0220239,0.216722,-0.0761747
435067,-0.00170898,-0.00537109,1.00269,0.0830591,-0.0274181,0.137448
435077,-0.000976562,-0.00463867,1.00293,0.0525415,0.033617,0.0458956
435087,-0.0012207,-0.00463867,1.00342,0.0220239,0.277758,0.0764132
435097,-0.0012207,-0.00439453,1.00342,0.0525415,0.0946522,-0.0456572
435107,-0.000976562,-0.00439453,1.00366,-0.00849366,-0.0274181,-0.106692
435117,-0.0012207,-0.00439453,1.00342,0.0830591,0.00309944,-0.0151396
435127,-0.0012207,-0.00463867,1.00391,0.0220239,-0.0579357,0.0458956
435137,-0.00170898,-0.00488281,1.00366,0.0830591,-0.0884533,0.0458956
435147,-0.00195312,-0.00488281,1.00366,0.0525415,0.186205,0.0764132
435157,-0.0012207,-0.00463867,1.00342,0.0220239,-0.0884533,-0.0761747
435167,-0.000976562,-0.00512695,1.00391,0.174612,-0.0274181,0.015378
435177,-0.0012207,-0.00463867,1.00366,0.0220239,-0.0579357,-0.106692
435197,-0.000976562,-0.00439453,1.00342,-0.0390112,0.0946522,-0.106692
435207,-0.000976562,-0.00390625,1.00342,-0.00849366,-0.0274181,0.0764132
435217,-0.000976562,-0.00390625,1.00317,-0.100046,0.0946522,-0.0456572
435227,-0.00146484,-0.00390625,1.00293,0.0525415,0.0946522,-0.0151396
435237,-0.00146484,-0.00390625,1.00342,0.0830591,0.00309944,-0.0456572
435247,-0.00170898,-0.00415039,1.00317,-0.00849366,0.0641346,-0.0456572
435257,-0.00170898,-0.00415039,1.00366,0.0830591,0.0641346,0.0764132
435267,-0.00146484,-0.00415039,1.00391,0.0220239,-0.0884533,-0.0761747
435277,-0.00146484,-0.00439453,1.00415,0.144094,0.00309944,-0.0456572
435287,-0.0012207,-0.00439453,1.00317,0.113577,-0.0884533,-0.106692
435297,-0.000976562,-0.00463867,1.00342,0.0830591,0.12517,0.0458956
435307,-0.0012207,-0.00488281,1.00366,0.0220239,-0.0274181,0.106931
435317,-0.00146484,-0.00488281,1.00342,0.0525415,0.0946522,-0.0151396
435337,-0.0012207,-0.00463867,1.00293,-0.00849366,0.033617,0.0764132
435347,-0.0012207,-0.00415039,1.00293,-0.0390112,0.12517,-0.0456572
435367,-0.00146484,-0.00415039,1.00269,-0.00849366,-0.0579357,-0.106692
435377,-0.0012207,-0.00415039,1.00293,0.0220239,0.0946522,-0.106692
435397,-0.00146484,-0.00439453,1.00342,0.0220239,0.033617,-0.106692
435407,-0.00170898,-0.00463867,1.00293,-0.0390112,0.12517,0.167966
435447,-0.00170898,-0.00488281,1.00317,0.0830591,-0.0274181,-0.0456572
435457,-0.0012207,-0.00463867,1.00366,-0.00849366,0.00309944,-0.0151396
435467,-0.0012207,-0.00488281,1.00366,-0.0390112,0.033617,-0.0456572
435477,-0.000976562,-0.00463867,1.00366,0.0220239,0.0641346,0.0764132
435487,-0.000976562,-0.00488281,1.00366,-0.0390112,0.033617,-0.0151396
435517,-0.00170898,-0.00415039,1.00244,0.0525415,0.155687,0.0764132
435527,-0.0012207,-0.00463867,1.00317,-0.00849366,0.155687,0.0764132
435537,-0.00170898,-0.00415039,1.00391,0.144094,0.00309944,0.015378
435547,-0.00195312,-0.00415039,1.00391,-0.00849366,0.033617,0.0764132
435557,-0.00146484,-0.00415039,1.00342,0.0220239,0.033617,-0.13721
435597,-0.00146484,-0.00390625,1.00366,0.0525415,0.0946522,0.015378
435607,-0.0012207,-0.00366211,1.00342,0.113577,-0.0884533,0.137448
435637,-0.000976562,-0.00415039,1.0022,-0.0390112,0.0946522,0.015378
435647,-0.000976562,-0.00390625,1.00244,0.0220239,-0.0579357,-0.106692
435687,-0.0012207,-0.00390625,1.00269,0.0830591,0.12517,-0.0456572
435717,-0.000488281,-0.00463867,1.00244,-0.0695288,0.0946522,0.0458956
435727,-0.000488281,-0.00463867,1.00269,0.0220239,0.033617,-0.0761747
435737,-0.000976562,-0.00439453,1.00366,-0.0390112,-0.149488,-0.0456572
435747,-0.000732422,-0.00415039,1.00366,0.0830591,0.033617,-0.167727
435757,-0.000732422,-0.00390625,1.00317,-0.130564,-0.118971,-0.0151396
435767,-0.000488281,-0.00415039,1.00342,-0.00849366,0.00309944,0.137448
435777,-0.000732422,-0.00390625,1.00342,0.0220239,0.0641346,0.0458956
435807,-0.0012207,-0.00341797,1.00244,0.0525415,0.12517,-0.0456572
435827,-0.00146484,-0.00366211,1.00195,0.144094,0.24724,0.0458956
435837,-0.00146484,-0.00366211,1.0022,0.0525415,0.033617,0.0458956
435857,-0.00146484,-0.00415039,1.00244,0.0830591,0.277758,0.198483
435867,-0.00146484,-0.00390625,1.00244,0.113577,0.00309944,-0.0151396
435877,-0.00146484,-0.00415039,1.00244,0.0525415,0.0946522,-0.13721
435887,-0.00146484,-0.00439453,1.00317,0.0525415,0.033617,-0.0456572
435897,-0.00170898,-0.00439453,1.00366,0.144094,0.033617,0.015378
435907,-0.00170898,-0.00415039,1.00391,-0.0390112,0.0641346,0.0458956
435917,-0.00146484,-0.00415039,1.00415,0.0220239,0.033617,-0.106692
435927,-0.00146484,-0.00415039,1.00391,-0.0695288,-0.0274181,-0.0151396
435937,-0.0012207,-0.00415039,1.00342,0.0525415,0.0641346,0.106931
435947,-0.000732422,-0.00415039,1.00317,0.0830591,-0.0579357,0.015378
435967,-0.0012207,-0.00415039,1.00269,0.0830591,0.0946522,0.015378
436007,-0.0012207,-0.00488281,1.00293,0.0830591,0.12517,-0.0456572
436017,-0.00146484,-0.00488281,1.00317,0.205129,0.033617,-0.0761747
436027,-0.00146484,-0.00512695,1.00293,0.0830591,0.033617,-0.0456572
436037,-0.0012207,-0.00488281,1.00366,0.144094,-0.0274181,-0.106692
436087,-0.0012207,-0.00439453,1.00342,0.144094,-0.0579357,-0.0151396
436097,-0.000976562,-0.00439453,1.00269,0.0830591,-0.0274181,0.106931
436117,-0.00170898,-0.00439453,1.00391,-0.0390112,0.033617,-0.0456572
436137,-0.0012207,-0.00439453,1.00366,-0.0695288,0.0641346,-0.0456572
436147,-0.00146484,-0.00439453,1.00391,0.144094,0.12517,-0.0761747
436157,-0.00146484,-0.00488281,1.00366,0.0525415,-0.118971,-0.106692
436167,-0.00170898,-0.00463867,1.00366,0.266165,-0.0274181,0.0458956
436177,-0.0012207,-0.00463867,1.00391,0.0525415,-0.0579357,-0.0456572
436187,-0.0012207,-0.00463867,1.00342,0.0220239,0.00309944,-0.0456572
436197,-0.0012207,-0.00463867,1.00293,0.113577,-0.0274181,0.015378
436207,-0.0012207,-0.00439453,1.00366,0.0220239,-0.0274181,-0.13721
436217,-0.00146484,-0.00415039,1.00366,-0.0390112,0.033617,0.015378
436227,-0.00170898,-0.00463867,1.00342,0.0220239,0.0641346,-0.0151396
436237,-0.0012207,-0.00488281,1.00342,0.205129,0.0946522,0.137448
436247,-0.00146484,-0.00488281,1.00293,0.0525415,-0.0884533,0.015378
436257,-0.00170898,-0.00488281,1.00244,0.0220239,0.0946522,-0.106692
436267,-0.00170898,-0.00488281,1.00244,-0.0390112,0.033617,-0.13721
436277,-0.00195312,-0.00512695,1.00269,0.0220239,0.00309944,-0.106692
436287,-0.00170898,-0.00512695,1.00244,-0.0390112,0.0946522,-0.0761747
436297,-0.00146484,-0.00488281,1.00244,-0.130564,0.00309944,-0.167727
436307,-0.00146484,-0.00488281,1.00269,0.113577,0.00309944,-0.13721
436317,-0.0012207,-0.00439453,1.00317,0.0830591,0.0946522,-0.0151396
436327,-0.0012207,-0.00463867,1.00317,0.0220239,0.033617,-0.0456572
436337,-0.000732422,-0.00439453,1.00342,-0.00849366,-0.118971,-0.0761747
436347,-0.000488281,-0.00439453,1.00391,-0.0695288,0.0946522,0.0764132
436357,-0.000976562,-0.00390625,1.00391,0.174612,0.155687,0.0764132
436367,-0.0012207,-0.00390625,1.00391,0.0220239,0.12517,-0.106692
436377,-0.0012207,-0.00415039,1.00415,-0.100046,0.033617,0.0764132
436387,-0.000976562,-0.00415039,1.00439,0.0830591,-0.0274181,0.0764132
436397,-0.000976562,-0.00415039,1.00464,0.0220239,0.00309944,-0.106692
436407,-0.0012207,-0.00415039,1.00342,0.144094,0.155687,-0.0761747
436417,-0.0012207,-0.00439453,1.00317,0.0220239,0.12517,-0.0456572
436427,-0.00146484,-0.00463867,1.00317,0.0220239,0.155687,0.0764132
436437,-0.00146484,-0.00439453,1.00342,0.0830591,0.033617,0.0764132
436447,-0.0012207,-0.00463867,1.00317,0.0525415,-0.0579357,-0.0761747
436457,-0.0012207,-0.00439453,1.00366,-0.0390112,0.00309944,-0.167727
436467,-0.0012207,-0.00439453,1.00415,0.0220239,-0.0274181,0.015378
436477,-0.0012207,-0.00415039,1.00342,-0.0390112,0.00309944,0.0764132
436487,-0.0012207,-0.00415039,1.00342,0.113577,0.00309944,0.106931
436497,-0.00170898,-0.00439453,1.00317,0.0525415,0.00309944,0.015378
436507,-0.00170898,-0.00415039,1.00366,-0.0695288,0.033617,0.015378
436517,-0.00195312,-0.00415039,1.00342,-0.161082,-0.0274181,-0.106692
436527,-0.00170898,-0.00463867,1.00366,-0.00849366,0.033617,-0.0456572
436537,-0.00170898,-0.00463867,1.00366,0.0220239,0.0641346,0.167966
436547,-0.0012207,-0.00415039,1.00439,0.144094,0.00309944,0.0458956
436557,-0.0012207,-0.00415039,1.00439,-0.0390112,0.0946522,-0.198245
436567,-0.000732422,-0.00463867,1.00391,-0.00849366,0.00309944,0.015378
436577,-0.000732422,-0.00439453,1.00391,0.0525415,-0.118971,-0.0151396
436587,-0.000732422,-0.00390625,1.00366,0.0220239,-0.0579357,-0.0456572
436597,-0.000976562,-0.00415039,1.00366,-0.00849366,0.00309944,-0.0151396
436607,-0.00146484,-0.00439453,1.00415,0.0525415,0.033617,-0.0151396
436617,-0.0012207,-0.00439453,1.00391,0.0830591,0.0946522,-0.0456572
436627,-0.00170898,-0.00488281,1.00342,0.0830591,-0.0274181,0.0458956
436637,-0.00170898,-0.00439453,1.00317,-0.0390112,-0.0274181,-0.0456572
436647,-0.00170898,-0.00415039,1.00317,0.0525415,0.155687,-0.0151396
436657,-0.00146484,-0.00390625,1.00293,-0.161082,0.033617,-0.0761747
436667,-0.00146484,-0.00390625,1.00317,0.0220239,0.033617,0.0458956
436677,-0.0012207,-0.00415039,1.00342,0.0525415,0.0641346,-0.106692
436687,-0.0012207,-0.00415039,1.00391,0.0830591,0.0946522,0.0458956
436697,-0.0012207,-0.00390625,1.00366,0.0220239,0.12517,0.137448
436707,-0.0012207,-0.00390625,1.00366,-0.00849366,0.12517,0.137448
436717,-0.00146484,-0.00390625,1.00439,-0.00849366,-0.118971,-0.0456572
436727,-0.0012207,-0.00390625,1.00415,-0.0695288,0.0946522,0.167966
436737,-0.00146484,-0.00415039,1.00391,0.0220239,0.00309944,0.0764132
436747,-0.00146484,-0.00439453,1.00415,-0.100046,0.00309944,0.015378
436757,-0.000976562,-0.00463867,1.00391,-0.0695288,-0.0579357,-0.0151396
436767,-0.000976562,-0.00463867,1.00293,0.0220239,0.0641346,0.015378
436777,-0.00146484,-0.00463867,1.00366,-0.0695288,0.033617,-0.0456572
436787,-0.00170898,-0.00439453,1.00391,0.144094,-0.0274181,-0.106692
436797,-0.00170898,-0.00439453,1.00391,0.0830591,0.0946522,0.0764132
436807,-0.00170898,-0.00488281,1.00342,0.0220239,0.0946522,0.015378
436817,-0.00195312,-0.00463867,1.00317,0.113577,0.00309944,0.137448
436827,-0.00219727,-0.00439453,1.00342,-0.0695288,0.12517,-0.0761747
436837,-0.00170898,-0.00463867,1.00366,0.0830591,0.033617,-0.0761747
436847,-0.00146484,-0.00488281,1.00342,0.113577,-0.0579357,-0.0151396
436857,-0.00170898,-0.00512695,1.00317,-0.0695288,0.186205,-0.0456572
436867,-0.00146484,-0.00488281,1.00342,-0.100046,0.0641346,0.0458956
436877,-0.00146484,-0.00488281,1.00342,-0.100046,0.0641346,0.0764132
436887,-0.0012207,-0.00439453,1.00342,-0.0695288,-0.0274181,-0.0456572
436897,-0.0012207,-0.00463867,1.00342,0.0525415,0.12517,-0.0151396
436907,-0.0012207,-0.00439453,1.00366,-0.0695288,0.0946522,-0.106692
436917,-0.0012207,-0.00463867,1.00366,0.0830591,0.00309944,0.0764132
436927,-0.0012207,-0.00439453,1.00342,-0.00849366,0.0641346,-0.0456572
436937,-0.000976562,-0.00439453,1.00366,-0.00849366,0.12517,0.0764132
436947,-0.0012207,-0.00415039,1.00391,0.0220239,-0.0579357,0.015378
436957,-0.0012207,-0.00415039,1.00366,0.0525415,0.186205,0.106931
436967,-0.000976562,-0.00415039,1.00342,-0.0390112,0.033617,-0.0456572
436977,-0.0012207,-0.00439453,1.00293,-0.00849366,0.0946522,-0.0456572
436997,-0.00170898,-0.00439453,1.00269,0.0830591,-0.118971,-0.13721
437007,-0.00146484,-0.00463867,1.00269,0.174612,0.0641346,0.015378
437017,-0.0012207,-0.00390625,1.00244,-0.00849366,-0.0274181,0.0764132
437037,-0.00170898,-0.00415039,1.00269,-0.130564,0.0946522,0.0458956
437047,-0.00170898,-0.00390625,1.00269,0.113577,0.186205,-0.198245
437057,-0.00146484,-0.00390625,1.00317,0.0220239,0.033617,0.0458956
437077,-0.0012207,-0.00415039,1.00293,-0.00849366,-0.0274181,0.015378
437087,-0.000976562,-0.00463867,1.00317,0.144094,-0.180006,-0.0761747
437107,-0.00146484,-0.00463867,1.00317,-0.00849366,-0.0884533,0.015378
437117,-0.00146484,-0.00439453,1.00366,0.0220239,-0.0274181,-0.0151396
437127,-0.00146484,-0.00415039,1.00293,0.0830591,0.00309944,-0.0456572
437147,-0.000976562,-0.00439453,1.00317,0.174612,0.0946522,0.015378
437157,-0.000976562,-0.00463867,1.00317,0.0220239,0.00309944,-0.0456572
437177,-0.00146484,-0.00463867,1.00293,0.0830591,-0.0579357,-0.198245
437187,-0.00170898,-0.00488281,1.00269,0.0220239,-0.0884533,0.137448
437197,-0.00170898,-0.00463867,1.00317,-0.00849366,0.0641346,0.137448
437207,-0.00170898,-0.00488281,1.00269,-0.00849366,-0.0884533,0.015378
437217,-0.00146484,-0.00415039,1.00317,-0.0695288,0.0641346,-0.106692
437227,-0.00219727,-0.00463867,1.00195,0.0525415,0.033617,0.015378
437247,-0.00195312,-0.00463867,1.00244,0.0830591,0.0946522,0.0458956
437267,-0.00170898,-0.00463867,1.00342,-0.00849366,0.186205,-0.106692
437277,-0.00195312,-0.00488281,1.00269,0.113577,0.12517,-0.167727
437287,-0.00170898,-0.00415039,1.00317,0.113577,0.0946522,-0.0151396
437297,-0.00170898,-0.00439453,1.00269,0.0830591,-0.118971,-0.0456572
437307,-0.00146484,-0.00463867,1.00269,0.0220239,0.033617,-0.0151396
437317,-0.0012207,-0.00439453,1.00244,-0.100046,0.0641346,-0.0456572
437337,-0.00146484,-0.00415039,1.00269,0.113577,0.033617,0.106931
437357,-0.00195312,-0.00439453,1.00293,-0.0390112,0.033617,0.0458956
437367,-0.00146484,-0.00415039,1.00269,0.0220239,0.00309944,-0.0456572
437377,-0.00195312,-0.00439453,1.0022,-0.100046,0.00309944,-0.0456572
437387,-0.00170898,-0.00439453,1.00293,0.0525415,0.0641346,0.015378
437397,-0.00170898,-0.00463867,1.00293,-0.100046,0.155687,0.015378
437407,-0.00146484,-0.00439453,1.00293,0.0525415,0.155687,-0.0761747
437417,-0.00146484,-0.00463867,1.00269,0.0830591,0.033617,-0.0151396
437427,-0.00146484,-0.00439453,1.00317,-0.00849366,-0.0274181,-0.106692
437437,-0.00170898,-0.00390625,1.00342,0.0830591,0.0946522,-0.0456572
437447,-0.00195312,-0.00415039,1.00317,0.144094,-0.0274181,0.0458956
437467,-0.00146484,-0.00390625,1.00171,-0.0390112,0.0946522,0.0458956
437477,-0.00170898,-0.00390625,1.0022,0.0525415,0.033617,0.0764132
437487,-0.00195312,-0.00415039,1.00244,-0.00849366,0.00309944,-0.25928
437497,-0.00170898,-0.00439453,1.00269,-0.00849366,0.00309944,0.015378
437507,-0.00170898,-0.00439453,1.00293,0.0220239,-0.0274181,0.015378
437517,-0.00146484,-0.00439453,1.00317,0.0220239,0.155687,0.0458956
437527,-0.00146484,-0.00439453,1.00293,-0.0390112,0.0946522,0.0458956
437537,-0.00146484,-0.00390625,1.00342,-0.00849366,-0.0884533,-0.0761747
437547,-0.00170898,-0.00415039,1.00293,-0.0390112,0.0946522,0.0458956
437557,-0.0012207,-0.00439453,1.00342,0.0525415,0.00309944,0.015378
437567,-0.0012207,-0.00439453,1.00366,0.0525415,-0.0579357,0.106931
437577,-0.0012207,-0.00415039,1.00342,0.113577,-0.149488,-0.13721
437587,-0.0012207,-0.00439453,1.00317,0.0220239,0.0641346,-0.0151396
437597,-0.00146484,-0.00439453,1.00342,0.0525415,0.0641346,-0.0151396
437607,-0.00146484,-0.00439453,1.00317,0.0220239,0.216722,0.106931
437617,-0.0012207,-0.00463867,1.00317,0.0525415,-0.0274181,-0.13721
437627,-0.0012207,-0.00463867,1.00342,0.144094,-0.0579357,-0.106692
437637,-0.0012207,-0.00463867,1.00342,-0.0695288,-0.149488,-0.0151396
437647,-0.0012207,-0.00463867,1.00342,0.0525415,-0.0884533,-0.0151396
437677,-0.000976562,-0.00415039,1.00342,-0.0390112,0.0641346,0.106931
437697,-0.0012207,-0.00463867,1.00391,-0.0390112,0.00309944,0.229001
437707,-0.000976562,-0.00439453,1.00391,0.0830591,-0.0274181,-0.0456572
437717,-0.00146484,-0.00463867,1.00366,-0.100046,0.0946522,0.0458956
437727,-0.00170898,-0.00463867,1.00391,0.0525415,0.0946522,-0.0151396
437737,-0.00170898,-0.00439453,1.00391,0.0525415,0.0946522,0.0764132
437747,-0.00170898,-0.00439453,1.00293,-0.00849366,0.00309944,-0.0761747
437767,-0.00170898,-0.00488281,1.00342,-0.00849366,0.033617,0.0458956
437777,-0.00170898,-0.00439453,1.00293,0.0830591,0.033617,-0.25928
437787,-0.00146484,-0.00415039,1.00342,-0.0390112,0.155687,0.167966
437797,-0.00195312,-0.00415039,1.00293,-0.00849366,0.033617,-0.0151396
437807,-0.00170898,-0.00415039,1.00269,0.174612,-0.0579357,0.0458956
437817,-0.00146484,-0.00415039,1.0022,0.0830591,0.0946522,0.0764132
437837,-0.00195312,-0.00415039,1.00244,-0.100046,0.12517,-0.106692
437847,-0.00170898,-0.00439453,1.00293,0.0220239,0.033617,-0.13721
437857,-0.00195312,-0.00463867,1.00293,0.0220239,-0.0274181,0.106931
437867,-0.00195312,-0.00463867,1.00293,0.205129,0.033617,0.0458956
437877,-0.00195312,-0.00463867,1.00342,-0.0695288,0.0946522,0.0458956
437887,-0.00146484,-0.00439453,1.00293,-0.00849366,0.12517,-0.0761747
437897,-0.00195312,-0.00390625,1.00317,0.205129,0.0946522,0.015378
437907,-0.00170898,-0.00390625,1.00342,-0.00849366,0.12517,0.0764132
437917,-0.00170898,-0.00366211,1.00317,0.144094,-0.0884533,-0.13721
437927,-0.00170898,-0.00390625,1.00342,0.0220239,0.0946522,-0.13721
437937,-0.00195312,-0.00415039,1.00269,-0.00849366,0.0641346,0.106931
437947,-0.00170898,-0.00366211,1.00293,0.0830591,0.0641346,0.0764132
437957,-0.00195312,-0.00390625,1.00342,0.0830591,0.0641346,-0.106692
437967,-0.00195312,-0.00390625,1.00342,0.0525415,-0.0274181,-0.0761747
437977,-0.00170898,-0.00415039,1.00366,-0.0390112,0.12517,0.0764132
437987,-0.00146484,-0.00415039,1.00391,0.144094,-0.0274181,0.0458956
437997,-0.00170898,-0.00439453,1.00366,0.0525415,0.155687,0.015378
438007,-0.00170898,-0.00415039,1.00366,0.0830591,0.0946522,0.0458956
438017,-0.00146484,-0.00415039,1.00342,0.0830591,0.0641346,-0.0456572
438027,-0.0012207,-0.00415039,1.00391,-0.0695288,0.033617,-0.0456572
438037,-0.000976562,-0.00366211,1.00366,-0.00849366,0.00309944,-0.0151396
438047,-0.0012207,-0.00415039,1.00317,-0.00849366,0.033617,0.198483
438057,-0.0012207,-0.00390625,1.00317,0.174612,0.0641346,0.0458956
438067,-0.0012207,-0.00415039,1.00269,0.144094,0.033617,-0.0151396
438077,-0.0012207,-0.00463867,1.0022,-0.0695288,0.155687,0.015378
438087,-0.0012207,-0.00439453,1.00269,-0.0390112,-0.0579357,0.0458956
438107,-0.000976562,-0.00415039,1.00342,0.0830591,-0.118971,-0.13721
438117,-0.000976562,-0.00415039,1.00317,-0.0390112,0.0946522,-0.0151396
438127,-0.0012207,-0.00415039,1.00293,0.0525415,0.24724,-0.13721
438137,-0.0012207,-0.00390625,1.00269,0.113577,0.12517,0.0458956
438147,-0.00170898,-0.00439453,1.00293,-0.00849366,0.12517,0.167966
438157,-0.00146484,-0.00415039,1.00293,0.0525415,0.00309944,0.0458956
438167,-0.00146484,-0.00415039,1.00317,-0.00849366,-0.0579357,0.0764132
438177,-0.00170898,-0.00439453,1.00293,-0.0390112,0.0641346,-0.0151396
438187,-0.00146484,-0.00463867,1.00317,0.144094,0.0641346,-0.0456572
438197,-0.0012207,-0.00439453,1.00366,0.144094,0.0946522,0.106931
438207,-0.0012207,-0.00439453,1.00293,0.0830591,0.033617,-0.106692
438217,-0.00146484,-0.00439453,1.00293,0.0220239,0.0946522,0.015378
438227,-0.000976562,-0.00415039,1.00293,0.144094,0.0946522,-0.0761747
438237,-0.0012207,-0.00390625,1.00317,0.0830591,0.0641346,0.015378
438257,-0.000976562,-0.00439453,1.00293,0.205129,-0.0274181,0.0764132
438267,-0.000732422,-0.00439453,1.00342,0.0525415,0.0641346,0.0458956
438277,-0.000488281,-0.00415039,1.00439,-0.0390112,0.033617,-0.0151396
438287,-0.000732422,-0.00390625,1.00415,0.0830591,0.0641346,0.0764132
438297,-0.000976562,-0.00415039,1.00439,-0.00849366,0.155687,0.0764132
438307,-0.00146484,-0.00415039,1.00415,-0.100046,0.00309944,-0.0151396
438317,-0.00146484,-0.00415039,1.00415,0.144094,-0.0274181,-0.13721
438327,-0.00146484,-0.00415039,1.00342,0.0525415,0.00309944,-0.0151396
438337,-0.00170898,-0.00366211,1.00366,0.0830591,-0.0579357,0.0458956
438347,-0.00170898,-0.00390625,1.00366,0.0830591,0.12517,-0.0151396
438357,-0.00195312,-0.00415039,1.00293,0.0220239,0.0641346,-0.0761747
438367,-0.00195312,-0.00439453,1.00293,0.0220239,0.0946522,-0.13721
438377,-0.00146484,-0.00415039,1.00293,-0.00849366,-0.0579357,0.0458956
438387,-0.0012207,-0.00415039,1.00293,0.0220239,0.00309944,-0.0151396
438397,-0.0012207,-0.00390625,1.00342,-0.00849366,0.155687,-0.13721
438407,-0.0012207,-0.00415039,1.00342,-0.00849366,0.0946522,-0.0761747
438417,-0.000976562,-0.00415039,1.00269,-0.00849366,0.0946522,-0.0456572
438427,-0.000976562,-0.00415039,1.00269,0.0830591,0.155687,0.137448
438437,-0.0012207,-0.00390625,1.00244,-0.00849366,0.12517,-0.0151396
438447,-0.00146484,-0.00415039,1.00269,-0.0390112,0.00309944,0.0764132
438457,-0.00195312,-0.00439453,1.00269,0.144094,-0.0579357,0.0458956
438487,-0.00219727,-0.00415039,1.00342,-0.0390112,0.033617,0.015378
438497,-0.00219727,-0.00390625,1.00366,-0.0695288,0.00309944,-0.0151396
438507,-0.00195312,-0.00366211,1.00342,0.0220239,-0.0274181,-0.0456572
438517,-0.00195312,-0.00439453,1.00293,-0.0390112,-0.0274181,-0.0761747
438527,-0.00170898,-0.00415039,1.00293,0.113577,0.0641346,-0.0761747
438547,-0.00146484,-0.00488281,1.00269,0.0525415,0.033617,-0.0456572
438557,-0.00146484,-0.00439453,1.00293,0.0220239,0.033617,0.0458956
438567,-0.00146484,-0.00463867,1.00293,0.0220239,0.033617,-0.0456572
438577,-0.00170898,-0.00463867,1.00342,0.113577,0.033617,-0.0761747
438587,-0.00170898,-0.00415039,1.00342,-0.00849366,0.0641346,-0.13721
438597,-0.00146484,-0.00439453,1.00317,0.0525415,-0.0274181,-0.106692
438617,-0.0012207,-0.00463867,1.00195,-0.00849366,0.033617,0.106931
438627,-0.000976562,-0.00439453,1.00195,-0.00849366,0.033617,0.0764132
438627,-0.000976562,-0.00439453,1.00195,-0.00849366,0.033617,0.0764132
438637,-0.0012207,-0.00439453,1.00195,-0.0390112,0.00309944,-0.0151396
438647,-0.00146484,-0.00488281,1.00195,0.0525415,0.0641346,0.0764132
438657,-0.00146484,-0.00463867,1.0022,0.113577,0.033617,0.0458956
438677,-0.00146484,-0.00463867,1.00317,0.0525415,0.033617,-0.13721
438687,-0.00170898,-0.00488281,1.00366,0.0220239,-0.0274181,-0.0151396
438707,-0.00146484,-0.00488281,1.00391,0.0525415,0.033617,0.0764132
438717,-0.00170898,-0.00463867,1.00342,0.0830591,-0.0579357,0.137448
438727,-0.00195312,-0.00439453,1.00342,0.0525415,-0.0274181,0.0458956
438737,-0.00170898,-0.00439453,1.00366,-0.00849366,0.155687,0.106931
438747,-0.00195312,-0.00415039,1.00391,0.0830591,-0.149488,-0.106692
438757,-0.00195312,-0.00415039,1.00391,-0.130564,0.0946522,0.0764132
438767,-0.00195312,-0.00439453,1.00366,0.0525415,0.12517,-0.0151396
438777,-0.00146484,-0.00415039,1.00391,0.0830591,0.033617,-0.0151396
438787,-0.00195312,-0.00390625,1.00415,0.0830591,-0.149488,-0.0151396
438797,-0.00170898,-0.00390625,1.00391,0.0525415,0.033617,-0.13721
438807,-0.00146484,-0.00415039,1.00391,0.113577,0.0946522,0.0764132
438817,-0.000976562,-0.00463867,1.00342,0.144094,-0.0579357,0.0764132
438827,-0.0012207,-0.00439453,1.00366,0.0220239,0.0946522,-0.228763
438837,-0.00146484,-0.00439453,1.00293,0.205129,0.0641346,-0.0761747
438857,-0.00146484,-0.00439453,1.00293,0.0525415,0.033617,-0.0456572
438867,-0.0012207,-0.00463867,1.00244,0.113577,0.155687,0.0458956
438897,-0.00170898,-0.00390625,1.00317,0.0525415,0.00309944,-0.106692
438907,-0.00170898,-0.00415039,1.00342,0.0220239,0.0641346,0.0458956
438917,-0.00170898,-0.00463867,1.00293,0.0525415,0.0641346,0.0764132
438927,-0.00170898,-0.00439453,1.00269,-0.00849366,-0.118971,0.0458956
438937,-0.00195312,-0.00439453,1.00317,0.0830591,-0.0274181,-0.0456572
438947,-0.00195312,-0.00439453,1.00366,0.0220239,0.0946522,-0.0151396
438957,-0.00146484,-0.00439453,1.00366,0.0830591,0.033617,-0.0456572
438977,-0.00219727,-0.00463867,1.00293,-0.100046,-0.118971,-0.0151396
438987,-0.00219727,-0.00463867,1.00293,0.0220239,-0.0579357,0.0458956
438997,-0.00244141,-0.00463867,1.00293,-0.130564,-0.0274181,-0.0761747
439007,-0.00244141,-0.00463867,1.00342,-0.0390112,0.0641346,0.0764132
439017,-0.00244141,-0.00439453,1.00317,0.0830591,0.0946522,0.0458956
439027,-0.00219727,-0.00439453,1.00293,0.235647,0.12517,0.0764132
439037,-0.00219727,-0.00415039,1.00244,-0.00849366,0.0946522,0.0458956
439067,-0.00195312,-0.00390625,1.00269,-0.00849366,0.033617,0.0458956
439077,-0.00170898,-0.00439453,1.00195,0.0220239,0.033617,-0.13721
439087,-0.00170898,-0.00488281,1.0022,0.0220239,0.0641346,-0.0151396
439097,-0.00170898,-0.00488281,1.00195,0.0525415,0.12517,0.0458956
439107,-0.00170898,-0.00512695,1.0022,0.174612,0.033617,-0.0761747
439117,-0.00170898,-0.00488281,1.00195,-0.0695288,0.0946522,-0.0456572
439127,-0.00170898,-0.00512695,1.00244,0.0220239,0.033617,-0.0761747
439137,-0.00170898,-0.00488281,1.0022,-0.0390112,0.033617,-0.0761747
439147,-0.00170898,-0.00488281,1.00269,-0.0390112,0.12517,-0.0151396
439157,-0.00170898,-0.00512695,1.00293,-0.0390112,0.0641346,-0.228763
439177,-0.00170898,-0.00488281,1.00244,0.0525415,0.155687,-0.0151396
439187,-0.00146484,-0.00512695,1.00244,-0.100046,0.0946522,-0.0456572
439197,-0.00146484,-0.00488281,1.00293,-0.0390112,0.0946522,0.106931
439207,-0.0012207,-0.00463867,1.00391,0.0830591,-0.0274181,0.015378
439217,-0.00146484,-0.00488281,1.00342,0.0525415,0.12517,-0.0151396
439237,-0.00146484,-0.00415039,1.00439,-0.00849366,-0.0274181,-0.0456572
439247,-0.00170898,-0.00415039,1.00415,-0.0390112,0.033617,-0.0151396
439267,-0.00146484,-0.00463867,1.00439,0.0220239,0.0946522,0.015378
439277,-0.000976562,-0.00439453,1.00439,0.144094,0.0641346,0.0458956
439287,-0.000732422,-0.00439453,1.00391,-0.00849366,0.00309944,-0.0761747
439297,-0.000976562,-0.00463867,1.00415,-0.00849366,0.033617,-0.0456572
439307,-0.000732422,-0.00439453,1.00391,0.0525415,-0.0884533,0.106931
439317,-0.000488281,-0.00415039,1.00317,0.0220239,0.0946522,-0.0761747
439327,-0.000732422,-0.00439453,1.00366,0.144094,0.0641346,-0.0151396
439337,-0.000976562,-0.00390625,1.00317,0.113577,0.0641346,0.015378
439347,-0.000976562,-0.00366211,1.00293,0.174612,-0.0274181,0.015378
439357,-0.0012207,-0.00415039,1.00293,0.113577,0.12517,-0.13721
439367,-0.0012207,-0.00439453,1.00244,0.0525415,0.033617,-0.0456572
439377,-0.00146484,-0.00439453,1.0022,0.0525415,0.033617,-0.0151396
439387,-0.00170898,-0.00390625,1.0022,0.0525415,0.216722,-0.0151396
439397,-0.00170898,-0.00415039,1.00269,0.0830591,0.033617,-0.0151396
439407,-0.00146484,-0.00415039,1.00244,-0.00849366,0.033617,-0.0456572
439427,-0.000976562,-0.00439453,1.00293,-0.100046,0.12517,-0.0761747
439437,-0.000732422,-0.00463867,1.00293,0.0525415,-0.0274181,-0.0151396
439447,-0.000732422,-0.00488281,1.00244,-0.0390112,0.00309944,0.167966
439457,-0.000244141,-0.00512695,1.0022,0.113577,0.00309944,0.0764132
439467,-0.000732422,-0.00488281,1.00244,0.0220239,0.00309944,-0.106692
439477,-0.000488281,-0.00439453,1.00269,0.0525415,0.033617,0.015378
439487,-0.000732422,-0.00439453,1.00269,0.0220239,0.0641346,-0.167727
439497,-0.000976562,-0.00390625,1.00269,0.0830591,0.00309944,0.0764132
439507,-0.000732422,-0.00390625,1.00269,-0.100046,0.0641346,0.0458956
439517,-0.000732422,-0.00390625,1.00317,0.0830591,0.033617,0.137448
439527,-0.0012207,-0.00366211,1.00366,0.0220239,0.0641346,-0.0761747
439537,-0.00170898,-0.00415039,1.00317,0.0830591,-0.0274181,-0.0761747
439547,-0.00195312,-0.00415039,1.00317,-0.100046,0.12517,-0.106692
439557,-0.00195312,-0.00415039,1.00317,0.0220239,0.00309944,-0.0761747
439567,-0.00170898,-0.00439453,1.00293,0.174612,0.0641346,0.015378
439577,-0.00170898,-0.00415039,1.0022,-0.0390112,-0.0884533,0.0764132
439597,-0.00195312,-0.00415039,1.00171,-0.00849366,0.0641346,-0.167727
439607,-0.00195312,-0.00415039,1.00244,0.0830591,0.033617,0.0764132
439617,-0.00195312,-0.00415039,1.00195,-0.00849366,0.0641346,0.015378
439627,-0.00170898,-0.00415039,1.0022,0.144094,-0.118971,-0.0151396
439637,-0.00146484,-0.00415039,1.0022,0.113577,0.00309944,0.167966
439647,-0.00195312,-0.00415039,1.0022,-0.00849366,0.155687,-0.0456572
439657,-0.00195312,-0.00415039,1.0022,0.0830591,0.033617,0.106931
439667,-0.00195312,-0.00415039,1.00195,-0.0390112,-0.149488,0.015378
439677,-0.00170898,-0.00390625,1.00195,0.0525415,0.033617,0.0764132
439687,-0.00170898,-0.00415039,1.00244,-0.00849366,0.033617,0.0764132
439697,-0.0012207,-0.00390625,1.00317,0.0830591,0.00309944,-0.0761747
439707,-0.0012207,-0.00390625,1.00317,0.0525415,0.0946522,-0.0151396
439717,-0.0012207,-0.00366211,1.00317,0.0220239,0.186205,-0.0456572
439727,-0.00146484,-0.00415039,1.00293,0.0220239,0.12517,0.015378
439737,-0.0012207,-0.00439453,1.00342,0.113577,0.033617,0.0764132
439747,-0.00146484,-0.00415039,1.00342,0.0220239,-0.0579357,0.0764132
439757,-0.00146484,-0.00439453,1.00391,-0.0695288,-0.0579357,0.015378
439767,-0.00146484,-0.00415039,1.00391,-0.0390112,0.033617,-0.0761747
439777,-0.00170898,-0.00415039,1.00342,0.0830591,0.00309944,-0.13721
439797,-0.0012207,-0.00415039,1.00342,0.205129,0.0641346,0.0458956
439807,-0.000976562,-0.00415039,1.00342,0.0220239,0.155687,-0.13721
439817,-0.000976562,-0.00439453,1.00317,-0.0390112,0.00309944,0.0764132
439827,-0.0012207,-0.00439453,1.00342,0.0220239,0.0946522,-0.0151396
439837,-0.00170898,-0.00463867,1.00317,-0.00849366,0.24724,-0.0761747
439847,-0.00170898,-0.00463867,1.00293,0.0830591,-0.0274181,0.0458956
439857,-0.00146484,-0.00488281,1.00342,0.0525415,-0.0579357,-0.106692
439867,-0.00146484,-0.00488281,1.00342,-0.00849366,-0.241041,-0.0761747
439877,-0.00146484,-0.00463867,1.00269,-0.00849366,0.216722,0.015378
439887,-0.0012207,-0.00488281,1.00244,0.113577,0.0946522,0.137448
439897,-0.0012207,-0.00439453,1.00244,-0.00849366,0.033617,0.0458956
439907,-0.0012207,-0.00463867,1.00244,0.113577,0.0946522,0.0764132
439917,-0.00146484,-0.00463867,1.00244,0.113577,-0.0274181,-0.0151396
439927,-0.00170898,-0.00463867,1.00244,-0.0390112,-0.0579357,0.0458956
439947,-0.00170898,-0.00390625,1.00317,0.205129,-0.0274181,-0.0761747
439957,-0.00195312,-0.00390625,1.00342,0.0830591,0.00309944,-0.0151396
439967,-0.00195312,-0.00366211,1.00391,0.0525415,0.0641346,-0.0151396
439977,-0.00170898,-0.00390625,1.00317,0.0830591,0.033617,-0.0456572
439987,-0.00146484,-0.00415039,1.00366,0.205129,-0.0579357,0.106931
440017,-0.0012207,-0.00366211,1.00342,0.0525415,-0.149488,-0.0761747
440027,-0.00146484,-0.00390625,1.00269,0.0525415,-0.0274181,0.0458956
440037,-0.00170898,-0.00415039,1.00269,0.0830591,-0.0274181,0.106931
440047,-0.00195312,-0.00366211,1.00244,0.0220239,0.0946522,-0.0151396
440067,-0.00195312,-0.00390625,1.00317,0.113577,-0.0579357,-0.167727
440077,-0.00170898,-0.00415039,1.00366,-0.0390112,0.12517,-0.0151396
440087,-0.00195312,-0.00439453,1.00342,0.0525415,0.0641346,-0.167727
440107,-0.00170898,-0.00463867,1.00293,-0.0390112,0.0946522,-0.0456572
440117,-0.00170898,-0.00463867,1.00244,-0.00849366,0.12517,-0.0456572
440127,-0.00146484,-0.00439453,1.00269,-0.100046,0.155687,0.0764132
440147,-0.000976562,-0.00463867,1.00269,-0.100046,0.155687,0.0764132
440187,-0.000488281,-0.00439453,1.00317,0.0525415,0.0946522,0.106931
440197,-0.000976562,-0.00488281,1.00317,-0.0390112,0.155687,-0.106692
440207,-0.00146484,-0.00488281,1.00293,0.0220239,0.00309944,-0.0456572
440217,-0.00170898,-0.00463867,1.00317,-0.00849366,0.12517,-0.0151396
440227,-0.00195312,-0.00439453,1.00317,0.0525415,0.0641346,0.015378
440237,-0.00170898,-0.00439453,1.00366,-0.00849366,0.186205,0.015378
440277,-0.00146484,-0.00439453,1.00293,0.0220239,0.0946522,0.0458956
440297,-0.00170898,-0.00415039,1.00269,-0.00849366,0.0946522,-0.0761747
440307,-0.0012207,-0.00390625,1.00244,0.113577,0.0641346,0.167966
440327,-0.00170898,-0.00415039,1.0022,0.144094,0.12517,0.015378
440347,-0.00219727,-0.00439453,1.0022,-0.0390112,-0.0884533,0.0764132
440357,-0.00219727,-0.00390625,1.00244,-0.0390112,-0.118971,-0.0151396
440367,-0.00195312,-0.00415039,1.0022,0.0220239,0.0946522,-0.0761747
440427,-0.000976562,-0.00439453,1.00366,-0.0390112,0.00309944,-0.13721
440437,-0.0012207,-0.00463867,1.00342,0.0830591,0.0641346,-0.228763
440447,-0.0012207,-0.00439453,1.00391,0.0220239,0.00309944,-0.13721
440457,-0.00146484,-0.00415039,1.00342,0.0525415,0.033617,0.106931
440487,-0.00146484,-0.00439453,1.00293,-0.130564,0.033617,0.0458956
440497,-0.00146484,-0.00439453,1.00269,0.174612,0.00309944,0.137448
440547,-0.00195312,-0.00488281,1.00269,-0.130564,0.00309944,0.015378
440557,-0.00219727,-0.00512695,1.00244,-0.0390112,-0.0274181,-0.106692
440567,-0.00195312,-0.00488281,1.00195,0.0830591,0.033617,0.137448
440577,-0.00195312,-0.00488281,1.00195,0.0525415,-0.0274181,-0.106692
440587,-0.00195312,-0.00463867,1.00195,0.0220239,0.155687,-0.0761747
440597,-0.00170898,-0.00439453,1.0022,0.113577,0.155687,-0.106692
440607,-0.00195312,-0.00415039,1.00244,0.0525415,0.12517,0.0458956
440627,-0.00146484,-0.00488281,1.00293,-0.00849366,0.033617,0.137448
440637,-0.00146484,-0.00488281,1.00293,0.205129,0.0946522,-0.13721
440647,-0.00146484,-0.00512695,1.00342,0.144094,0.033617,-0.106692
440657,-0.00146484,-0.00512695,1.00293,-0.0695288,0.033617,-0.13721
440667,-0.0012207,-0.00512695,1.00293,0.0525415,0.0946522,0.137448
440687,-0.00146484,-0.00488281,1.00342,0.0830591,0.00309944,0.137448
440697,-0.00146484,-0.00488281,1.00342,-0.0390112,0.12517,0.0764132
440707,-0.00170898,-0.00488281,1.00317,-0.222117,-0.0579357,-0.198245
440717,-0.00146484,-0.00537109,1.00293,0.0830591,-0.0884533,0.015378
440727,-0.00146484,-0.00561523,1.00366,0.0830591,0.0641346,0.015378
440747,-0.00146484,-0.00512695,1.00293,-0.00849366,0.033617,-0.106692
440757,-0.00146484,-0.00488281,1.00317,-0.00849366,0.033617,-0.0151396
440767,-0.00170898,-0.00488281,1.00342,0.0220239,0.033617,-0.0151396
440777,-0.00195312,-0.00463867,1.00342,-0.100046,0.0641346,-0.0761747
440787,-0.00170898,-0.00439453,1.00342,-0.0390112,-0.118971,0.0458956
440797,-0.00146484,-0.00439453,1.00317,-0.0390112,0.0946522,0.015378
440807,-0.00146484,-0.00439453,1.00293,0.174612,0.0641346,0.0764132
440817,-0.00146484,-0.00390625,1.00317,0.0525415,-0.0579357,-0.106692
440827,-0.00170898,-0.00366211,1.00342,-0.00849366,0.0641346,-0.0761747
440837,-0.00170898,-0.00415039,1.00244,0.144094,0.0641346,-0.106692
440847,-0.0012207,-0.00439453,1.00269,-0.0390112,-0.0274181,0.137448
440857,-0.00170898,-0.00463867,1.00244,0.0220239,0.0946522,-0.0151396
440867,-0.0012207,-0.00463867,1.00244,-0.100046,0.00309944,0.106931
440877,-0.00146484,-0.00439453,1.00244,0.0220239,0.0946522,0.015378
440887,-0.00170898,-0.00415039,1.00269,0.0220239,-0.0274181,0.0458956
440907,-0.00170898,-0.00415039,1.00317,0.113577,0.0946522,0.0458956
440917,-0.00170898,-0.00366211,1.00293,-0.0390112,0.0946522,0.015378
440927,-0.00146484,-0.00390625,1.00293,0.113577,0.033617,-0.106692
440937,-0.00146484,-0.00366211,1.00269,0.0830591,-0.0884533,0.015378
440947,-0.00195312,-0.00390625,1.00342,0.113577,0.00309944,-0.0151396
440957,-0.00170898,-0.00488281,1.00293,0.0220239,0.0946522,-0.167727
440967,-0.00195312,-0.00463867,1.00293,-0.161082,0.12517,-0.106692
440977,-0.00195312,-0.00439453,1.00269,0.0830591,-0.0274181,0.0764132
440987,-0.00146484,-0.00488281,1.00269,0.0220239,0.0641346,-0.0761747
440997,-0.00195312,-0.00488281,1.00293,-0.00849366,0.033617,-0.0151396
441007,-0.00146484,-0.00463867,1.00293,0.0525415,0.033617,0.106931
441017,-0.00146484,-0.00463867,1.00317,0.0830591,-0.0579357,-0.0761747
441027,-0.00146484,-0.00439453,1.00293,0.0220239,0.186205,-0.0761747
441037,-0.00219727,-0.00463867,1.00293,0.174612,0.033617,0.015378
441047,-0.00219727,-0.00463867,1.00317,0.0525415,0.0946522,-0.0761747
441057,-0.00195312,-0.00488281,1.00317,0.0220239,0.00309944,0.015378
441067,-0.00195312,-0.00512695,1.00366,-0.0695288,0.00309944,-0.198245
441077,-0.00195312,-0.00512695,1.00244,0.235647,-0.0884533,0.106931
