t,accx,accy,accz,gyrox,gyroy,gyroz
11080,0.000732422,0,0.999512,0.0815094,-0.015974,0.0706017
11090,0.000488281,0,0.999023,0.0815094,-0.0464916,0.284225
11100,0.000244141,0,0.999512,-0.0100434,0.228167,-0.0514686
11110,0.000244141,-0.000244141,0.999512,-0.040561,0.0755787,-0.020951
11120,0.000732422,-0.000244141,0.999512,-0.0710785,0.0145435,-0.020951
11130,0.000244141,0,1,0.0815094,0.0450611,0.101119
11140,0.000488281,-0.000488281,1,-0.040561,0.0145435,0.0400841
11150,0,-0.000488281,0.999756,0.20358,0.0145435,0.0706017
11170,0,-0.000732422,0.998535,-0.101596,0.0145435,0.0400841
11180,0.000244141,-0.000488281,0.998291,-0.0100434,-0.015974,0.0706017
11190,0.000244141,-0.000732422,0.998779,-0.101596,-0.015974,0.00956655
11200,-0.000244141,-0.000244141,0.999023,0.0204742,0.167131,-0.020951
11220,-0.000244141,-0.000244141,0.998535,0.0204742,-0.0464916,0.0706017
11230,-0.000244141,-0.000244141,0.998779,0.142545,-0.107527,0.00956655
11240,0.000244141,-0.000244141,0.999268,0.0509918,0.0755787,-0.112504
11250,-0.000244141,-0.000244141,0.999023,0.112027,-0.138044,0.00956655
11260,-0.000244141,-0.000488281,0.999268,0.0509918,-0.015974,0.0706017
11280,-0.000488281,0.000244141,0.999756,0.112027,-0.0770092,-0.0819862
11290,-0.000244141,0.000244141,0.999512,-0.040561,0.0145435,0.101119
11300,0,0.000244141,0.999756,0.0204742,0.136614,-0.112504
11310,0,0.000732422,0.999512,0.0509918,0.0450611,0.00956655
11330,0.000244141,0.000488281,0.999268,-0.0710785,0.0450611,-0.020951
11340,0.000244141,0,0.999756,0.0815094,0.0145435,-0.143021
11350,0.000244141,0.000244141,0.999756,0.0204742,-0.0464916,-0.143021
11360,0.000244141,0.000244141,0.999512,-0.101596,0.106096,0.00956655
11370,0.000488281,0,0.999268,0.0509918,0.167131,-0.0514686
11380,0.000488281,-0.000244141,0.999268,-0.040561,0.0450611,0.101119
11390,0.000244141,0,0.999512,0.0509918,-0.015974,0.0400841
11400,0.000488281,-0.000244141,0.999512,0.0815094,0.0145435,0.00956655
11410,0.000732422,-0.000244141,0.999512,0.234097,-0.0464916,-0.020951
11420,0.0012207,-0.000244141,0.999512,-0.0100434,-0.138044,0.101119
11430,0.000732422,0.000244141,0.999268,-0.101596,0.136614,-0.020951
11440,0.000976562,0.000244141,0.999512,0.0815094,0.0450611,0.101119
11450,0.000976562,0,1,-0.0100434,-0.0770092,-0.0514686
11460,0.000488281,-0.000488281,0.999756,0.142545,0.0450611,0.192672
11470,0.000244141,-0.000244141,0.999756,-0.040561,-0.0464916,0.101119
11480,0.000244141,-0.000732422,1.00024,0.0509918,0.0450611,-0.0819862
11490,0.000244141,-0.000244141,1.00122,-0.0100434,0.0755787,0.00956655
11500,0.000488281,0,1.00122,-0.0100434,0.0145435,0.101119
11510,0.000488281,-0.000488281,1.00146,0.0815094,0.136614,-0.143021
11520,0.000488281,-0.000244141,1.00146,0.0509918,0.0755787,-0.0819862
11530,0.000244141,-0.000244141,1.00073,0.0204742,0.0755787,0.131637
11540,0.000244141,-0.000488281,1.00098,0.0509918,0.136614,-0.0514686
11550,0.000244141,-0.000732422,1.00049,0.0815094,-0.0464916,0.0400841
11570,-0.000244141,-0.000488281,1.00122,-0.101596,0.228167,-0.020951
11580,-0.000244141,-0.000976562,1.00098,-0.101596,0.106096,-0.020951
11590,0.000244141,-0.000488281,1.00098,-0.040561,0.228167,-0.143021
11600,0.000488281,-0.000488281,1.00098,0.0204742,0.167131,0.0706017
11610,0.000732422,-0.000244141,1.00073,-0.040561,-0.107527,-0.0819862
11620,0.000488281,-0.000488281,1.00122,0.0509918,0.0145435,-0.020951
11630,0.000732422,-0.000488281,1.00073,0.0509918,-0.0464916,0.0706017
11640,0.000732422,-0.000976562,1.00024,0.142545,0.0450611,0.0706017
11650,0.000488281,-0.000732422,1,0.0204742,-0.0464916,0.00956655
11660,0.000244141,-0.000976562,1,-0.0100434,0.0450611,0.0400841
11670,0.000244141,-0.000732422,0.999756,0.112027,0.106096,0.00956655
11680,0.000244141,-0.000488281,1.00049,0.142545,-0.138044,0.0706017
11690,0.000488281,-0.000244141,1,0.0815094,0.136614,-0.112504
11710,0,0,1.00049,0.173062,-0.107527,-0.143021
11720,0,0.000488281,1.00049,0.142545,0.197649,-0.0514686
11730,0,0.000488281,1.00073,-0.0100434,0.167131,0.0706017
11740,0.000488281,0.000488281,1.00024,0.142545,0.0450611,-0.020951
11750,0.000244141,0.000732422,1.00024,0.0204742,-0.0464916,0.0400841
11760,0,0.000488281,1.00049,-0.040561,0.0755787,-0.143021
11770,0.000488281,0.000488281,1,0.112027,0.0450611,0.162154
11780,0.000244141,0,1.00049,0.112027,0.0450611,0.101119
11790,0.000244141,0,1.00073,-0.040561,-0.015974,0.101119
11800,0,-0.000244141,1,-0.040561,0.0145435,0.162154
11810,0,-0.000244141,1.00049,0.112027,-0.0464916,-0.020951
11820,0.000488281,-0.000488281,0.999756,0.112027,0.228167,0.131637
11830,0,-0.000488281,0.999756,0.112027,-0.0464916,-0.0514686
11840,-0.000244141,-0.000488281,0.999756,0.112027,0.0450611,0.00956655
11850,-0.000244141,-0.000244141,0.999512,0.0509918,0.0145435,0.0706017
11860,-0.000244141,-0.000244141,0.999023,0.0509918,0.0450611,-0.020951
11870,-0.000244141,0.000244141,0.998779,-0.101596,0.167131,0.0706017
11880,-0.000244141,0.000244141,0.999023,0.0815094,0.197649,-0.0514686
11890,-0.000244141,0,0.999023,0.0204742,0.0755787,0.0400841
11900,0,-0.000488281,0.999512,0.0204742,0.0145435,0.0400841
11910,0.000244141,0,0.999756,-0.0100434,-0.0770092,-0.0514686
11920,0.000244141,0.000244141,0.999756,-0.101596,0.0145435,-0.143021
11930,0,-0.000244141,0.999756,0.112027,0.167131,-0.0514686
11940,0.000244141,-0.000244141,0.998779,0.0204742,0.228167,0.00956655
11950,0.000244141,-0.000244141,0.999512,0.112027,-0.0464916,-0.0819862
11960,0.000732422,-0.000732422,0.999512,-0.0100434,0.0450611,0.131637
11970,0.000732422,-0.000488281,0.999756,-0.0100434,0.167131,-0.020951
11980,0.000488281,-0.000488281,0.999268,-0.0100434,-0.168562,-0.0514686
11990,0.000244141,-0.000244141,0.999512,0.0509918,0.0145435,-0.112504
12000,0.000244141,-0.000244141,0.999512,0.0204742,0.0450611,-0.020951
12010,0.000244141,-0.000488281,0.999512,-0.0100434,0.0450611,-0.0514686
12020,0,-0.000732422,0.999756,0.0815094,0.0755787,-0.112504
12030,0,-0.000732422,0.999268,0.0509918,-0.0464916,0.131637
12040,0,-0.000244141,0.999512,0.0815094,0.106096,0.00956655
12050,0.000244141,-0.000488281,0.999268,-0.132114,0.0145435,0.00956655
12060,0,-0.000976562,0.999268,0.0204742,-0.0464916,-0.020951
12070,0,-0.000488281,1,-0.132114,0.136614,-0.112504
12090,0,-0.000244141,0.999512,-0.0710785,0.0755787,-0.0514686
12100,0,-0.000732422,0.999756,0.0204742,0.0450611,0.00956655
12110,0,-0.000488281,0.999512,0.142545,0.0145435,0.0706017
12120,0,-0.000488281,0.999268,0.0204742,0.136614,0.00956655
12130,0.000244141,0,0.999268,-0.0710785,0.0450611,-0.143021
12140,0.000244141,-0.000244141,0.999023,0.0204742,-0.015974,0.131637
12150,0,-0.000244141,0.999023,0.112027,-0.107527,0.162154
12170,0.000488281,-0.000488281,0.999268,-0.132114,0.0145435,-0.0514686
12180,0.000488281,0,0.999756,0.0815094,0.136614,-0.143021
12190,0.000488281,0,1.00024,0.0815094,-0.107527,-0.0514686
12210,0.000244141,-0.000488281,1,0.0509918,0.0450611,0.00956655
12220,0.000244141,-0.000488281,1,-0.0710785,0.0450611,-0.020951
12240,0.000488281,0,0.999512,0.0204742,0.0145435,0.00956655
12250,0.000488281,-0.000244141,0.999512,0.0815094,-0.107527,-0.143021
12260,0.000732422,-0.000244141,0.999512,0.0815094,0.0450611,-0.020951
12280,0,0,0.999268,-0.0100434,-0.015974,0.00956655
12310,0.000244141,0,0.998779,0.0204742,-0.015974,0.00956655
12320,0,0,0.998291,-0.040561,0.0450611,0.0400841
12340,0.000244141,0,0.998535,0.0204742,-0.015974,0.131637
12350,0,0,0.997803,-0.040561,0.0145435,-0.020951
12360,0,-0.000488281,0.998047,0.0204742,-0.0770092,-0.020951
12370,0.000244141,-0.000488281,0.998291,0.0509918,-0.107527,0.0706017
12380,0.000244141,-0.000488281,0.998779,-0.040561,0.0145435,0.0706017
12410,0.000732422,-0.000244141,0.999512,0.112027,-0.015974,-0.0514686
12440,0.000732422,-0.000488281,0.999023,-0.0100434,-0.107527,0.0400841
12460,0.000976562,-0.000732422,0.998779,0.0509918,-0.0464916,-0.0514686
12470,0.000732422,-0.000732422,0.999023,-0.0710785,0.197649,0.101119
12490,0.000488281,-0.000732422,0.999756,-0.0710785,0.0145435,0.00956655
12510,0.000488281,-0.000488281,0.999756,-0.040561,0.136614,0.00956655
12540,-0.000488281,-0.000732422,0.998779,-0.0710785,0.0755787,0.101119
12590,0,-0.000244141,0.999512,-0.040561,0.0145435,-0.0514686
12600,-0.000244141,-0.000732422,0.999268,-0.040561,0.136614,-0.173539
12690,0.0012207,0,0.999756,0.0204742,-0.0464916,0.0400841
12730,0.000488281,-0.000488281,1,-0.0100434,0.0755787,0.0706017
12760,0,-0.000976562,1,-0.0100434,0.0145435,-0.173539
12780,-0.000244141,-0.000488281,0.999512,0.0204742,0.0145435,0.101119
12790,-0.000244141,-0.000244141,0.999512,-0.101596,-0.0464916,0.00956655
12810,0,-0.000488281,0.998291,-0.0100434,0.106096,-0.0514686
12830,0,-0.000976562,0.998535,0.0204742,0.106096,0.101119
12840,0.000488281,-0.000488281,0.999023,0.0204742,0.0145435,-0.204057
12850,0.000244141,-0.000488281,0.999512,-0.0710785,0.0450611,-0.020951
12870,0.000244141,-0.000488281,1.00024,0.0815094,0.0145435,0.131637
12880,0,-0.000732422,1.00024,-0.0100434,-0.0464916,0.00956655
12890,0,-0.000488281,1,-0.040561,0.0145435,-0.0514686
12900,0.000244141,-0.000244141,0.999756,0.20358,0.0450611,0.00956655
12950,0,-0.000488281,0.999512,0.0204742,0.0145435,0.0400841
12970,0.000244141,-0.000244141,1,0.0815094,0.0145435,0.0400841
12980,0.000488281,0,1,0.112027,0.106096,-0.0514686
13000,0.000244141,-0.000244141,1,0.0204742,0.0755787,0.0706017
13010,0,-0.000244141,0.999756,0.0204742,-0.107527,0.00956655
13040,0.000488281,-0.000732422,0.998779,-0.101596,0.0450611,0.101119
13060,0.000732422,-0.000732422,0.999512,-0.0100434,0.136614,-0.143021
13100,0.000488281,-0.000488281,0.999756,0.112027,0.0755787,0.0400841
13110,0.000244141,-0.000244141,0.999512,0.0509918,0.0145435,-0.0514686
13120,0.000244141,-0.000244141,1,-0.0710785,-0.0770092,-0.0514686
13140,-0.000244141,-0.000732422,0.999268,0.0509918,0.0755787,-0.0819862
13160,0,-0.000488281,0.999756,-0.0100434,0.106096,0.162154
13200,0,-0.000976562,0.999756,0.0509918,-0.0464916,-0.112504
13230,0.000244141,-0.000488281,0.999512,0.0509918,-0.168562,-0.112504
13250,0,-0.000488281,0.998535,0.0509918,0.136614,-0.0819862
13260,0.000244141,-0.000732422,0.999023,0.0815094,0.0755787,0.00956655
13300,0,-0.000732422,0.999268,0.0509918,0.0450611,0.00956655
13310,0.000244141,-0.000732422,0.999512,0.142545,0.0450611,-0.0819862
13330,-0.000488281,-0.000732422,0.999268,0.0509918,0.106096,0.0400841
13350,-0.000488281,-0.000732422,1.00024,-0.040561,0.0450611,-0.0819862
13370,-0.000488281,-0.000976562,1.00073,0.0204742,0.0450611,0.162154
13390,-0.000488281,-0.000732422,1.00098,-0.101596,0.0755787,0.0706017
13400,-0.000244141,-0.000488281,1.00098,0.0204742,0.0145435,-0.0819862
13430,-0.000244141,-0.000488281,1.00098,0.0509918,0.0145435,-0.112504
13500,0.000976562,-0.000976562,1.00098,-0.0100434,0.0145435,-0.173539
13530,0.000244141,-0.000732422,1.00073,0.0509918,0.0145435,0.00956655
13540,0.000244141,-0.000732422,1.00098,0.0815094,0.0450611,0.00956655
13550,0.000488281,-0.000976562,1.00049,0.142545,0.0450611,0.00956655
13560,0.000732422,-0.0012207,1.00024,-0.101596,0.0755787,-0.0514686
13580,0.000732422,-0.000732422,1,0.0204742,-0.0464916,0.162154
13590,0.000732422,-0.000976562,1.00049,-0.0710785,0.0145435,0.00956655
13600,0.000732422,-0.000488281,1.00024,-0.040561,0.0450611,0.00956655
13630,0.000244141,-0.000732422,1,0.142545,0.136614,0.00956655
13660,-0.000488281,-0.000976562,0.999756,0.112027,0.0450611,-0.143021
13670,-0.000488281,-0.0012207,0.999023,0.112027,0.106096,0.00956655
13690,0,-0.000732422,0.999756,0.0815094,-0.0464916,0.101119
13700,0.000488281,-0.000244141,1,-0.0100434,0.197649,0.0400841
13710,0.000244141,0,1,-0.101596,0.0450611,-0.0819862
13720,0,0.000244141,0.999512,-0.0710785,-0.0464916,0.0400841
13730,0.000244141,0.000732422,0.999512,0.0204742,-0.19908,-0.0514686
13740,0,0.000488281,1,0.234097,-0.107527,0.00956655
13750,-0.000244141,0,0.999756,0.0815094,-0.0464916,-0.0514686
13760,-0.000488281,0.000244141,0.999756,-0.0100434,0.197649,-0.0514686
13780,-0.000244141,-0.000244141,0.999268,0.0509918,-0.015974,-0.0514686
13790,0.000244141,-0.000488281,0.999756,-0.0710785,0.0450611,0.0706017
13820,-0.000244141,-0.000488281,0.999756,0.0815094,-0.0770092,-0.143021
13830,-0.000488281,-0.000976562,0.999756,-0.0100434,0.136614,0.00956655
13840,-0.000488281,-0.000976562,0.999512,0.0204742,0.0450611,-0.112504
13860,-0.000488281,-0.0012207,0.998779,-0.0100434,-0.107527,0.0706017
13880,-0.000244141,-0.000488281,0.999268,-0.0100434,0.258684,-0.0514686
13890,-0.000244141,-0.000244141,0.998535,-0.0710785,-0.015974,-0.143021
13900,-0.000488281,-0.000244141,0.998535,0.0204742,0.0755787,0.101119
13910,-0.000488281,-0.000244141,0.999268,-0.223666,0.258684,0.101119
13920,-0.000244141,-0.000244141,0.999512,0.20358,0.0145435,0.101119
13940,0.000244141,-0.000244141,1,0.0204742,0.0450611,-0.020951
13950,0.000488281,-0.000488281,1,-0.132114,0.106096,-0.0514686
13960,0.000488281,-0.000488281,1,0.0509918,0.0755787,0.284225
13980,0.000244141,-0.000976562,0.999756,-0.040561,-0.0464916,0.0706017
13990,0.000488281,-0.000976562,0.999756,0.0509918,-0.19908,-0.0514686
14000,0.000244141,-0.000732422,0.999756,-0.0100434,0.0145435,-0.0514686
14010,0.000488281,-0.000244141,1,-0.0710785,0.0450611,0.00956655
14020,0.000244141,0,0.999512,0.142545,-0.015974,-0.0819862
14030,0,-0.000244141,0.999268,-0.0710785,-0.0464916,-0.112504
14040,0.000244141,-0.000244141,0.999268,0.0815094,0.0755787,-0.020951
14050,-0.000244141,-0.000732422,0.999512,-0.0100434,0.0145435,0.00956655
14060,-0.000244141,-0.000244141,1,0.0204742,0.136614,0.101119
14070,-0.000244141,0,0.999756,0.0204742,-0.015974,0.101119
14080,0,0.000244141,0.999512,-0.0100434,0.0145435,0.131637
14090,0,0.000244141,0.999512,-0.101596,-0.015974,-0.0819862
14100,-0.000244141,0,1,-0.101596,0.0755787,0.00956655
14110,0,0.000244141,1.00049,0.112027,0.0755787,-0.143021
14120,0.000488281,0.000488281,1.00073,0.0815094,0.0145435,0.101119
14130,0.000488281,0.000244141,1,0.0204742,-0.0770092,-0.0514686
14140,0.000976562,0.000244141,1.00049,0.0204742,-0.138044,-0.0819862
14150,0.000732422,0,1.00024,-0.0100434,0.167131,0.131637
14170,0.0012207,0,0.999268,0.0204742,0.0145435,0.00956655
14180,0.0012207,-0.000244141,0.999756,0.20358,-0.0770092,-0.0819862
14190,0.000488281,0,0.999756,-0.040561,0.0755787,-0.020951
14200,0.000488281,0,0.999756,0.112027,0.258684,-0.020951
14210,0,0,0.999268,0.0509918,0.106096,-0.112504
14220,0.000244141,0,0.999268,0.173062,0.136614,0.0400841
14230,0.000488281,0,1,0.0815094,0.0450611,-0.173539
14240,0.000244141,0,1,0.112027,0.0755787,0.0706017
14250,0.000488281,0,1.00049,0.0815094,0.167131,0.0706017
14260,0.000488281,-0.000488281,1.00024,0.0509918,-0.015974,-0.020951
14270,0.000732422,-0.000488281,1.00024,-0.0710785,0.106096,0.101119
14280,0.000488281,-0.000244141,1.00024,0.0509918,-0.015974,-0.020951
14300,0.000488281,-0.000488281,1,0.0815094,0.0450611,0.192672
14320,0.000732422,-0.000488281,1.00049,-0.162631,-0.0770092,-0.0514686
14330,0.000244141,-0.000488281,1.00073,0.0509918,-0.015974,-0.0819862
14340,0.000488281,-0.000488281,1.00098,-0.162631,0.0145435,0.131637
14350,0.000488281,-0.000244141,1.00073,0.0509918,-0.015974,0.0400841
14360,0.000244141,-0.000488281,1.00073,-0.132114,0.0755787,-0.020951
14370,0.000732422,-0.000732422,1.00073,0.0204742,-0.0464916,0.00956655
14380,0.000976562,-0.000732422,1.00073,-0.0100434,0.0450611,-0.0819862
14390,0.000732422,-0.000732422,1.00024,0.0509918,0.0145435,0.101119
14400,0.000244141,-0.000732422,1,0.0815094,-0.0770092,0.192672
14410,0.000488281,-0.000488281,0.999512,-0.040561,0.106096,0.0706017
14420,0,-0.000488281,0.999023,0.0204742,0.136614,-0.0514686
14430,0,-0.000488281,0.999268,0.112027,-0.0464916,0.131637
14440,0.000244141,-0.000488281,0.999268,0.0509918,0.0145435,0.101119
14450,0.000244141,0,0.999756,0.0509918,0.0450611,-0.143021
14460,0,0,0.999268,0.112027,-0.0770092,0.162154
14470,0.000244141,-0.000244141,0.998535,0.0815094,0.0755787,-0.143021
14480,0.000244141,0,0.999023,0.112027,-0.107527,0.101119
14490,0.000244141,-0.000244141,0.999512,0.0204742,-0.0464916,0.00956655
14500,0,-0.000488281,1,-0.0710785,0.0755787,0.101119
14510,0,-0.000244141,0.999512,0.112027,-0.107527,-0.112504
14520,0,-0.000488281,0.999512,0.0204742,0.106096,0.192672
14530,0,-0.000488281,0.999512,-0.0710785,0.136614,-0.020951
14550,0,0,0.999268,0.0815094,-0.107527,0.0706017
14560,0,0.000488281,0.999268,0.0509918,-0.015974,0.0706017
14570,0.000244141,0.000244141,1,0.112027,-0.0464916,-0.0819862
14590,0.000488281,-0.000244141,0.999756,0.112027,-0.0464916,-0.0514686
14600,0,-0.000732422,0.999756,-0.040561,-0.015974,0.00956655
14610,0,-0.000732422,1.00049,0.112027,-0.107527,-0.0514686
14620,-0.000244141,-0.000488281,1.00073,0.112027,0.0755787,0.101119
14630,-0.000244141,-0.000732422,1.00122,0.0815094,0.0450611,0.0706017
14640,0.000244141,-0.000732422,1.00049,-0.0100434,0.228167,0.00956655
14650,0.000244141,-0.000488281,0.999756,-0.040561,-0.107527,0.131637
14670,-0.000244141,-0.000488281,1,0.234097,0.0755787,-0.112504
14680,-0.000488281,-0.000976562,1.00049,0.0509918,0.0450611,0.0400841
14690,-0.000488281,-0.000976562,1.00098,0.0204742,0.0450611,0.00956655
14700,0,-0.000976562,1.00122,0.0509918,0.0755787,0.00956655
14710,-0.000488281,-0.000732422,1.00073,0.112027,-0.015974,-0.0819862
14720,-0.000732422,-0.000732422,1.00024,0.0204742,-0.138044,-0.143021
14730,-0.000488281,-0.000732422,1,-0.0710785,0.0755787,0.101119
14740,-0.000488281,-0.000732422,1,0.0509918,-0.0464916,-0.020951
14750,-0.000244141,-0.000488281,1.00049,0.0509918,-0.0770092,0.0706017
14760,0,-0.000732422,1.00024,-0.101596,0.0450611,-0.0514686
14770,0,-0.000488281,1.00073,0.0509918,0.0145435,0.0706017
14780,0,-0.000488281,1.00024,0.0204742,0.0450611,-0.0514686
14800,0,-0.000488281,0.999268,-0.0100434,-0.0464916,-0.204057
14810,0,-0.000488281,0.999756,-0.0710785,0.197649,-0.265092
14830,0,-0.000732422,0.999756,-0.0710785,0.0755787,-0.0819862
14840,0,-0.000732422,1,-0.040561,-0.138044,-0.020951
14850,0,-0.000488281,0.999512,-0.0100434,-0.015974,-0.0819862
14860,-0.000244141,-0.000488281,0.999268,0.295132,-0.0464916,-0.112504
14870,-0.000244141,-0.000732422,0.999268,0.173062,0.0145435,0.0400841
14900,0,-0.000244141,0.999268,-0.0100434,0.0450611,0.0706017
14910,0.000244141,-0.000244141,0.999023,0.234097,-0.0464916,0.0400841
14920,0.000488281,-0.000488281,0.999756,-0.040561,0.106096,0.0400841
14930,0.000244141,-0.000488281,1,0.112027,0.0145435,-0.0514686
14940,0.000244141,-0.000244141,1.00024,0.142545,0.0450611,0.0706017
14990,-0.000244141,-0.000244141,0.999512,0.112027,-0.0464916,0.0706017
15000,0,-0.000488281,0.999512,-0.040561,0.106096,0.00956655
15020,0.000244141,-0.000976562,1.00024,0.0204742,0.0450611,-0.0514686
15030,-0.000244141,-0.000732422,0.999512,0.142545,-0.0464916,-0.204057
15040,-0.000244141,-0.000488281,0.999268,-0.101596,0.0755787,-0.112504
15050,-0.000488281,-0.000732422,0.999268,0.0815094,0.0755787,0.0400841
15070,0,-0.000488281,0.999756,0.112027,0.0450611,-0.143021
15080,-0.000244141,-0.000488281,0.999756,0.0204742,-0.015974,-0.0514686
15090,-0.000244141,-0.000244141,1.00049,0.0815094,0.106096,0.0400841
15110,-0.000244141,-0.000244141,1.00073,0.142545,-0.0464916,0.101119
15120,0,-0.000488281,1.00073,-0.0710785,0.0755787,-0.020951
15140,-0.000244141,-0.000244141,1.00049,0.0509918,0.136614,-0.020951
15150,-0.000244141,-0.000244141,1.00073,0.112027,0.0145435,0.00956655
15160,-0.000244141,-0.000244141,1.00073,-0.0100434,0.0450611,0.00956655
15170,0,-0.000244141,1.00024,-0.101596,0.0145435,-0.0514686
15180,0,0,1.00024,-0.0100434,0.106096,0.192672
15190,0,0.000244141,0.999512,0.0204742,-0.015974,-0.020951
15200,0,0.000244141,1,0.0815094,0.0145435,-0.173539
15210,-0.000244141,0,0.999512,-0.0100434,0.0145435,0.101119
15220,-0.000244141,-0.000488281,0.999756,-0.101596,0.0145435,-0.0514686
15230,0,-0.000488281,0.999756,0.142545,-0.0770092,0.0400841
15240,0,-0.000488281,0.999756,-0.0100434,0.0450611,0.00956655
15250,-0.000244141,-0.000244141,0.999512,0.0815094,-0.015974,0.0400841
15260,-0.000488281,0,0.999512,0.142545,-0.138044,-0.173539
15270,-0.000488281,0,0.999512,0.0204742,0.0450611,-0.234574
15290,-0.000244141,-0.000244141,0.998779,-0.040561,-0.0770092,0.00956655
15330,-0.000244141,-0.000244141,0.999512,0.0509918,0.0145435,-0.0819862
15360,-0.000488281,-0.000732422,1,0.234097,-0.138044,-0.0819862
15370,-0.000976562,-0.000732422,1,0.0509918,0.0450611,-0.020951
15380,-0.000488281,-0.000732422,1.00024,0.0204742,0.0145435,0.00956655
15400,-0.000244141,-0.000488281,1,-0.0100434,0.0145435,-0.0514686
15410,-0.000244141,-0.000732422,0.999268,0.0204742,0.0145435,-0.0514686
15450,-0.000244141,-0.000244141,1.00098,0.112027,0.0755787,0.0706017
15480,-0.000976562,-0.000488281,1.00024,0.0509918,-0.0464916,-0.112504
15490,-0.0012207,-0.000244141,1.00073,-0.040561,0.0145435,0.101119
15500,-0.00170898,-0.000488281,1.00098,-0.132114,0.106096,0.101119
15510,-0.00170898,-0.000244141,1.00073,0.0815094,0.0450611,-0.0514686
15550,-0.000244141,0,0.999023,0.173062,-0.107527,0.00956655
15580,-0.000244141,-0.000244141,1.00024,0.142545,-0.0464916,0.0400841
15590,-0.000732422,-0.000244141,0.999756,0.0204742,0.106096,-0.020951
15610,-0.000488281,-0.000976562,1,0.142545,-0.0464916,-0.0819862
15630,-0.000976562,-0.000488281,1.00073,-0.0100434,0.0450611,0.0400841
15660,-0.000488281,-0.000244141,1,0.0204742,-0.0770092,-0.0514686
15670,0,-0.000244141,1.00024,-0.0100434,-0.015974,-0.020951
15680,-0.000244141,-0.000488281,1.00049,-0.0100434,0.0755787,0.0400841
15690,-0.000732422,-0.000244141,1,-0.0100434,-0.0770092,0.101119
15710,-0.000244141,-0.000244141,0.999756,-0.0100434,0.0450611,0.101119
15730,-0.000732422,-0.000488281,0.999512,0.142545,0.106096,0.131637
15770,-0.000732422,0,1.00073,0.0204742,0.0450611,-0.020951
15800,-0.000976562,-0.000244141,0.999268,0.0509918,-0.0770092,0.0400841
15820,-0.000732422,0,1,0.0204742,0.197649,0.0400841
15830,-0.000244141,0,0.999756,-0.0100434,0.0755787,-0.0819862
15840,-0.000488281,-0.000244141,1,-0.0100434,-0.015974,0.0706017
15860,-0.000732422,0,1.00024,0.234097,0.0145435,0.0400841
15900,0.000244141,0,1.00024,-0.040561,-0.107527,0.101119
15910,0,-0.000244141,1.00024,0.173062,0.0450611,0.00956655
15920,0,-0.000244141,1.00024,0.0204742,0.167131,0.00956655
15940,-0.000244141,-0.000244141,0.999756,0.0204742,-0.0464916,-0.0514686
15960,-0.000244141,-0.000488281,1.00024,-0.040561,0.258684,-0.020951
15970,-0.000244141,-0.000732422,1.00049,0.0815094,0.106096,-0.0514686
15990,-0.000732422,-0.000976562,1.00024,0.0509918,0.0450611,-0.0514686
16000,-0.000488281,-0.000732422,1.00049,0.173062,-0.015974,-0.0819862
16020,0,-0.000976562,1,0.0204742,-0.015974,0.0706017
16050,0,-0.000732422,1,-0.162631,0.0450611,-0.020951
16060,0.000244141,-0.000976562,1.00024,0.112027,0.167131,-0.020951
16090,0.000244141,-0.000488281,1.00024,0.173062,-0.015974,0.0400841
16100,-0.000244141,-0.000488281,1.00024,0.0509918,-0.0770092,-0.020951
16110,-0.000244141,-0.000244141,1.00049,0.173062,-0.015974,-0.204057
16120,-0.000244141,-0.000244141,1.00024,0.112027,-0.168562,0.101119
16140,0,-0.000732422,0.999756,0.0204742,0.0755787,0.0706017
16160,0,-0.000488281,1.00024,0.112027,0.167131,-0.0819862
16170,0.000244141,-0.000488281,1.00049,0.0204742,0.0145435,-0.020951
16190,0.000244141,-0.000732422,0.999756,-0.040561,0.0145435,0.00956655
16200,0.000488281,-0.000244141,0.999756,0.0204742,-0.0770092,-0.0514686
16210,0.000488281,-0.000244141,0.999512,0.112027,-0.19908,0.0706017
16230,0.000244141,-0.000488281,0.999512,0.0815094,0.0145435,0.0706017
16260,-0.000244141,-0.000488281,1,0.142545,-0.0464916,0.00956655
16270,0,-0.000244141,0.999756,-0.101596,0.0145435,0.00956655
16280,0,-0.000732422,0.999756,0.0509918,-0.015974,-0.265092
16300,0.000244141,-0.000244141,1,0.0204742,-0.168562,-0.112504
16320,0,-0.000244141,1.00024,0.0509918,0.0145435,-0.020951
16330,0.000488281,-0.000244141,1.00049,-0.0100434,0.0450611,-0.020951
16340,0.000244141,-0.000244141,0.999756,-0.0100434,-0.015974,0.00956655
16350,0.000244141,-0.000244141,1,0.142545,0.0145435,0.00956655
16370,0,0.000244141,0.999756,-0.040561,-0.015974,-0.020951
16420,0.000244141,-0.000244141,1,0.0815094,0.106096,-0.0514686
16430,0.000244141,-0.000732422,0.999268,0.0815094,-0.015974,-0.0514686
16440,0.000244141,-0.000488281,0.999268,0.0204742,0.106096,0.00956655
16450,0.000244141,-0.000244141,0.999512,0.142545,-0.015974,-0.0514686
16480,0,-0.000244141,0.999023,-0.0710785,0.0450611,0.0400841
16490,0.000244141,0,0.999023,0.0204742,0.0450611,-0.0514686
16500,0,-0.000244141,0.999268,-0.101596,0.106096,-0.112504
16520,0.000244141,-0.000732422,0.998535,0.112027,0.0145435,0.00956655
16540,0.000244141,0,0.998779,-0.0710785,-0.107527,0.0706017
16560,0,0,0.999268,0.112027,-0.0770092,0.101119
16570,0,0,0.999268,0.142545,0.106096,0.0400841
16580,0,0.000488281,0.999512,-0.0710785,0.0145435,-0.204057
16590,0,0,0.999756,0.0509918,0.0755787,0.00956655
16600,0,-0.000244141,1.00024,0.0815094,0.0145435,-0.112504
16610,0,-0.000488281,1.00024,-0.040561,0.0145435,-0.0514686
16620,-0.000244141,-0.000244141,1.00024,0.0815094,-0.0464916,-0.0819862
16630,-0.000244141,-0.000488281,1,-0.0100434,0.0450611,0.0400841
16640,-0.000244141,-0.000244141,0.999512,0.112027,-0.0464916,-0.0514686
16650,0,0.000244141,0.999268,-0.0100434,0.106096,-0.020951
16670,0,0,0.998779,0.112027,-0.015974,0.0400841
16680,-0.000244141,-0.000244141,0.999268,0.0815094,0.167131,0.162154
16690,-0.000244141,-0.000488281,1,-0.040561,0.136614,-0.112504
16700,0,-0.000244141,1.00024,0.0204742,-0.015974,0.101119
16710,0,0,1,0.0204742,-0.0464916,0.101119
16720,-0.000244141,0,0.999268,0.112027,0.106096,-0.0514686
16730,-0.000244141,0.000244141,0.999268,0.0815094,0.167131,0.0706017
16740,-0.000244141,-0.000244141,0.999756,0.0815094,0.0145435,-0.020951
16750,-0.000244141,0.000244141,1.00024,0.0509918,0.106096,-0.0819862
16770,-0.000244141,0,1.00073,0.0815094,0.0755787,0.0400841
16780,0,-0.000244141,1,-0.0100434,-0.0464916,0.0400841
16790,-0.000244141,-0.000244141,1.00024,-0.0100434,0.0145435,-0.020951
16800,-0.000244141,-0.000244141,1.00073,0.0815094,0.0145435,-0.143021
16810,0,0,1,0.0509918,0.0450611,0.0706017
16820,0,-0.000244141,1.00024,0.112027,-0.0770092,0.00956655
16830,0.000244141,-0.000244141,0.999756,0.0204742,-0.0464916,0.0400841
16840,0,-0.000244141,0.999756,-0.040561,0.0450611,-0.020951
16850,0.000244141,-0.000244141,0.999512,-0.040561,0.136614,0.101119
16860,0.000244141,0.000244141,0.999268,-0.040561,0.0755787,-0.0514686
16870,0.000244141,0,0.999268,0.0509918,0.0145435,-0.0514686
16880,-0.000244141,0,0.999512,0.0204742,0.0145435,-0.020951
16890,-0.000244141,0,0.999512,0.112027,0.197649,-0.0819862
16900,0.000488281,-0.000244141,0.999512,0.173062,-0.015974,0.00956655
16910,0.000488281,-0.000488281,0.999756,0.0815094,0.0450611,-0.0514686
16920,0.000488281,-0.000488281,1,-0.0100434,-0.0770092,-0.020951
16930,0.000244141,-0.000732422,0.999756,-0.0100434,-0.0770092,-0.173539
16940,0,-0.000244141,1,-0.0100434,-0.0464916,0.0400841
16950,-0.000244141,-0.000488281,1,-0.0100434,0.106096,0.101119
16960,-0.000244141,-0.000732422,1.00024,0.20358,0.106096,0.0400841
16970,-0.000244141,-0.000488281,1.00024,-0.0100434,0.0755787,0.00956655
16980,0,-0.000488281,1.00024,0.112027,0.0755787,0.00956655
16990,-0.000244141,-0.000732422,1.00049,0.0204742,0.0145435,-0.112504
17000,0.000732422,-0.000732422,1.00024,-0.101596,0.0755787,0.0706017
17030,-0.000244141,-0.000732422,0.999023,0.0815094,-0.107527,-0.143021
17040,0,-0.000488281,0.999268,0.0509918,0.136614,0.101119
17050,0.000244141,-0.000488281,0.999268,0.0204742,0.106096,-0.0819862
17060,0,-0.000488281,0.999756,0.0204742,0.0145435,-0.0514686
17070,0,-0.000488281,0.999512,0.112027,0.0145435,0.0400841
17080,0,-0.000488281,0.999023,0.0204742,-0.107527,-0.0514686
17090,0.000244141,-0.000488281,0.999023,-0.101596,-0.0464916,-0.020951
17110,0.000488281,-0.000732422,0.998535,0.0204742,0.0145435,-0.0514686
17120,0.000488281,-0.000488281,0.998291,0.112027,0.106096,0.101119
17130,0.000488281,-0.000488281,0.998535,0.0204742,0.136614,-0.0514686
17140,0.000244141,-0.000488281,0.997803,0.0204742,-0.0464916,-0.0819862
17150,0,-0.0012207,0.998535,-0.101596,0.0145435,0.0706017
17160,0,-0.000976562,0.998535,-0.0710785,0.0145435,-0.112504
17170,-0.000244141,-0.000488281,0.998779,0.20358,0.0145435,-0.020951
17180,0.000244141,-0.000732422,0.999023,-0.0100434,-0.015974,0.131637
17190,0.000244141,-0.000488281,0.998291,-0.040561,0.136614,-0.0514686
17200,0.000732422,-0.000488281,0.998535,0.0815094,-0.19908,0.101119
17210,0.000732422,-0.000488281,0.998779,0.0509918,0.106096,0.0706017
17220,0.000488281,-0.000732422,0.999268,-0.0100434,0.0145435,0.00956655
17230,0.000244141,-0.000732422,1.00024,-0.0100434,0.0755787,0.00956655
17240,0.000244141,-0.000732422,0.999756,-0.0100434,-0.0770092,-0.173539
17260,0.000488281,-0.000488281,0.998535,0.0815094,-0.19908,-0.0819862
17270,0.000488281,-0.000488281,0.999023,-0.0100434,0.197649,0.162154
17280,0.000488281,-0.000732422,0.999512,-0.0710785,0.197649,-0.112504
17290,0.000244141,-0.000488281,0.999512,0.0204742,0.197649,0.0706017
17300,0.000244141,-0.000244141,0.999268,0.173062,-0.107527,-0.0514686
17310,0.000488281,-0.000244141,0.999512,0.112027,0.0450611,-0.112504
17320,0.000732422,-0.000732422,0.999756,0.0204742,-0.0770092,0.0400841
17330,0.000732422,-0.000976562,1.00049,0.0815094,-0.107527,0.101119
17340,0.000488281,-0.000732422,1.00049,0.0204742,0.0145435,-0.204057
17350,0,-0.000976562,1.00049,-0.040561,-0.015974,-0.173539
17370,0.000244141,-0.000732422,1,0.0815094,0.106096,0.0706017
17380,0.000244141,-0.000488281,0.999512,0.112027,-0.107527,0.00956655
17390,0,-0.000488281,0.999512,-0.132114,0.106096,0.0706017
17400,0,-0.000488281,0.999512,0.0204742,-0.0464916,-0.0819862
17430,-0.000488281,-0.000976562,0.999512,0.0204742,-0.015974,0.0400841
17440,-0.000488281,-0.0012207,0.999512,0.0815094,-0.015974,0.101119
17450,0,-0.000732422,0.999756,0.142545,0.106096,-0.020951
17460,0.000244141,-0.000488281,0.999023,-0.0100434,0.0755787,-0.112504
17470,-0.000244141,-0.000732422,0.999268,0.142545,0.0145435,0.0400841
17480,0,-0.000732422,0.999268,-0.0100434,-0.015974,0.0400841
17510,-0.000488281,-0.000732422,0.999756,-0.040561,0.0145435,-0.0514686
17530,0.000244141,-0.000488281,0.999756,-0.0100434,-0.0770092,0.0400841
17550,-0.000244141,-0.000488281,0.999756,-0.040561,-0.0770092,0.00956655
17560,-0.000244141,-0.000732422,0.999512,0.142545,-0.0464916,0.0400841
17570,-0.000244141,-0.000488281,0.999268,0.0509918,-0.138044,-0.112504
17590,0.000244141,-0.000244141,0.999756,-0.0710785,0.0145435,0.0706017
17610,0,0,0.999756,0.142545,0.0450611,0.131637
17620,-0.000244141,-0.000244141,0.999512,0.20358,0.0755787,0.22319
17630,-0.000244141,-0.000488281,0.999268,0.173062,0.136614,0.00956655
17640,0,-0.000732422,0.999268,0.0204742,0.0755787,-0.0819862
17650,0,-0.000488281,0.999756,0.0509918,-0.0770092,0.00956655
17660,0.000244141,-0.000488281,0.999512,-0.040561,0.0450611,-0.112504
17670,0.000488281,-0.000976562,0.999268,0.0509918,0.0755787,-0.0819862
17680,0.000244141,-0.000732422,0.999268,0.0204742,0.167131,-0.0819862
17690,0.000244141,-0.000976562,0.998779,0.142545,0.0450611,-0.020951
17700,-0.000244141,-0.000488281,0.999023,0.0509918,0.0450611,-0.112504
17710,0,0,0.998779,0.0815094,0.258684,0.0706017
17730,0.000244141,-0.000244141,0.999023,0.0509918,0.136614,0.00956655
17750,0.000488281,-0.000244141,0.999512,0.0509918,0.106096,-0.0514686
17780,-0.000244141,-0.000732422,0.999512,-0.132114,-0.015974,-0.0514686
17800,0.000488281,-0.000732422,0.999268,0.0509918,0.0755787,0.00956655
17820,0.000488281,-0.000732422,0.999023,0.0509918,0.0145435,0.00956655
17830,0.000244141,-0.000488281,0.999023,0.0509918,0.106096,-0.204057
17850,0.000488281,-0.000488281,0.998291,-0.040561,0.0450611,-0.0514686
17860,0.000244141,-0.000244141,0.998047,0.0815094,0.106096,-0.0514686
17870,0.000244141,-0.000244141,0.997803,0.0509918,-0.015974,0.0706017
17890,0,-0.000244141,0.998535,0.0509918,-0.015974,0.00956655
17900,-0.000732422,-0.000488281,0.998047,-0.0100434,-0.0770092,-0.112504
17920,0,-0.000732422,0.998779,0.0815094,-0.0464916,0.101119
17930,0,-0.000732422,0.998291,-0.0100434,0.106096,0.0400841
17940,-0.000244141,-0.000732422,0.999512,0.112027,0.136614,0.131637
17950,0,-0.000732422,0.999512,-0.0100434,-0.0464916,-0.020951
17960,-0.000244141,-0.000488281,0.999756,0.234097,-0.0464916,-0.020951
17980,-0.000244141,-0.000488281,1.00098,0.0509918,0.0145435,0.0706017
17990,-0.000244141,-0.000244141,1.00073,0.112027,-0.015974,0.0400841
18000,-0.000488281,-0.000244141,1.00049,-0.040561,0.0450611,-0.112504
18010,-0.000244141,-0.000488281,0.999512,0.0204742,-0.0770092,0.0400841
18040,0.000244141,-0.000732422,0.998535,-0.040561,-0.015974,-0.020951
18060,0,0,0.999023,-0.101596,0.136614,0.131637
18070,0,0,0.999023,0.173062,0.0755787,0.0400841
18080,-0.000244141,-0.000244141,0.999512,0.0204742,0.0145435,0.00956655
18090,0,-0.000244141,0.999512,-0.040561,-0.0770092,-0.112504
18110,0.000732422,-0.000488281,0.999512,-0.0100434,-0.015974,-0.112504
18120,0.000732422,-0.000732422,0.999756,-0.0100434,-0.0464916,-0.143021
18140,0.000244141,-0.000244141,0.999756,-0.0100434,0.167131,-0.020951
18150,0.000488281,-0.000488281,0.999756,-0.040561,-0.015974,-0.204057
18160,0,-0.000244141,0.999512,0.0815094,0.0755787,0.162154
18170,0,0,0.999023,0.0509918,-0.0770092,-0.0514686
18180,0,0.000244141,0.999023,-0.0100434,-0.0464916,0.0400841
18190,-0.000244141,0.000244141,0.999512,0.0509918,-0.015974,0.00956655
18200,-0.000244141,-0.000244141,0.999268,0.112027,-0.168562,-0.020951
18230,0.000244141,-0.000244141,0.999023,0.0509918,-0.0464916,0.0400841
18240,0.000244141,-0.000488281,0.999023,0.0509918,-0.0464916,0.101119
18250,0,0,0.998535,0.0509918,0.0450611,-0.173539
18260,-0.000244141,0.000244141,0.999268,0.142545,-0.0770092,0.0400841
18270,0,0,0.998779,0.0204742,-0.0464916,-0.143021
18280,0,-0.000488281,0.998779,0.0204742,0.136614,0.101119
18300,0.000488281,-0.000732422,0.999268,0.0509918,-0.0770092,0.0706017
18310,0.000244141,-0.000732422,0.999023,-0.101596,0.0755787,-0.020951
18320,0.000244141,-0.000732422,0.999268,-0.0100434,-0.0464916,-0.112504
18330,0.000244141,-0.000488281,0.999756,0.0204742,-0.107527,-0.020951
18340,0.000488281,-0.000488281,0.999512,0.0509918,0.0755787,0.0706017
18360,0.000244141,0,1.00073,0.0204742,0.106096,-0.0819862
18380,-0.000488281,-0.000244141,0.999756,0.142545,0.0450611,-0.020951
18390,-0.000244141,0,0.999756,-0.040561,0.106096,0.0400841
18400,0.000488281,0.000244141,0.999756,-0.101596,0.0450611,0.0706017
18410,0,-0.000244141,0.999268,-0.040561,0.0450611,0.0400841
18420,0.000244141,-0.000244141,0.998779,0.0815094,-0.0464916,-0.0819862
18450,0,-0.000488281,0.999023,0.112027,0.0755787,-0.0514686
18460,-0.000244141,-0.000244141,0.998535,-0.101596,0.0145435,-0.112504
18480,0,-0.000244141,0.998047,0.0509918,0.0145435,-0.143021
18490,0,-0.000244141,0.998291,0.0509918,0.0755787,0.101119
18500,0,-0.000244141,0.998535,-0.0100434,-0.015974,-0.0819862
18510,-0.000244141,-0.000488281,0.998535,0.0509918,-0.015974,-0.020951
18520,0,-0.000488281,0.999023,0.112027,0.0145435,0.101119
18530,-0.000244141,-0.000732422,0.999512,-0.101596,0.0450611,-0.143021
18560,-0.000244141,-0.000732422,0.999756,0.0204742,-0.015974,-0.143021
18580,-0.000488281,-0.000488281,0.999756,-0.040561,0.0755787,-0.0819862
18590,-0.000244141,-0.000488281,1.00024,0.0204742,0.0145435,0.131637
18600,0.000244141,-0.000244141,0.999756,-0.0100434,0.0755787,-0.0819862
18620,0.000244141,-0.000732422,0.999268,0.0509918,0.106096,-0.020951
18630,0.000244141,-0.000732422,0.999023,0.142545,0.106096,0.00956655
18670,0.000488281,-0.000488281,0.999023,0.0204742,0.0450611,-0.0514686
18680,0.000488281,-0.000488281,0.999268,0.0509918,0.106096,-0.0514686
18690,0.000488281,-0.000488281,0.998779,0.0204742,0.197649,0.0400841
18740,0.000244141,-0.000488281,0.999512,0.112027,0.258684,-0.0514686
18760,0,-0.000732422,1,-0.0100434,-0.168562,-0.020951
18770,-0.000244141,-0.000488281,1,-0.040561,0.0755787,0.0706017
18780,-0.000244141,-0.000488281,0.999756,0.0509918,0.0755787,-0.0514686
18810,0,-0.000732422,0.999268,-0.0100434,0.197649,-0.204057
18820,0,-0.000732422,0.999268,0.0815094,0.0145435,0.00956655
18830,0.000244141,-0.000976562,1,0.0509918,0.106096,0.162154
18840,0.000244141,-0.000732422,0.999756,0.0815094,-0.015974,-0.0819862
18850,0.000244141,-0.000488281,1,-0.0710785,0.106096,-0.143021
18870,-0.000244141,0,1,0.142545,-0.107527,-0.143021
18910,0,-0.000488281,0.999268,-0.0100434,0.0145435,-0.143021
18930,0.000244141,-0.000488281,0.999023,-0.0710785,0.0755787,0.00956655
18950,0.000244141,-0.000732422,0.999268,0.0204742,-0.0464916,-0.020951
18970,0.000244141,-0.000732422,0.999512,0.112027,-0.0464916,-0.020951
18990,0.000244141,-0.0012207,0.999756,0.0509918,0.0755787,-0.020951
19000,0,-0.0012207,0.999023,-0.0100434,-0.138044,-0.020951
19020,-0.000488281,-0.000732422,0.999268,0.173062,-0.015974,-0.0514686
19030,-0.000488281,-0.000488281,0.999756,0.112027,0.0450611,-0.0514686
19050,0,-0.000488281,0.999268,0.0204742,-0.0464916,0.0400841
19060,0,-0.000244141,0.999512,0.20358,0.0450611,-0.0514686
19070,0.000488281,0,0.999756,0.264615,0.106096,0.0400841
19090,0,-0.000244141,0.999512,0.0815094,0.0755787,0.131637
19110,0.000488281,-0.000488281,0.999268,0.20358,0.0145435,0.0400841
19140,0,-0.000244141,1.00049,0.142545,0.0450611,-0.173539
19170,0,0,1,0.112027,0.167131,0.0400841
19180,-0.000244141,0.000244141,1.00024,0.0509918,0.0755787,0.0706017
19190,0,0.000488281,1.00049,0.0204742,0.136614,0.0400841
19210,0,-0.000244141,1.00073,0.0509918,0.106096,0.0400841
19220,0,-0.000488281,1.00073,0.0509918,0.0755787,-0.0514686
19230,0,-0.000488281,1,0.0815094,-0.0770092,-0.020951
19260,-0.000488281,-0.000488281,1.00049,0.142545,-0.015974,-0.0514686
19290,0.000244141,-0.000488281,0.999023,-0.132114,0.136614,-0.0819862
19300,0.000488281,-0.000732422,0.999023,0.0204742,-0.0770092,0.0400841
19310,0,-0.000732422,0.999023,0.234097,0.0450611,-0.173539
19320,0,-0.000732422,0.999023,0.0815094,0.106096,-0.0514686
19330,0,-0.000732422,0.998535,0.0509918,0.0450611,0.131637
19340,0,-0.000976562,0.999023,0.112027,0.0755787,-0.0819862
19350,-0.000244141,-0.000732422,0.998779,0.173062,0.0145435,-0.020951
19360,-0.000244141,-0.000488281,0.998291,-0.0100434,0.0450611,0.131637
19370,0,-0.000488281,0.998535,-0.040561,-0.015974,-0.0819862
19380,0.000244141,-0.000732422,0.998535,0.0509918,0.0145435,0.131637
19390,0,-0.000732422,0.999023,0.112027,0.0145435,0.162154
19400,0,-0.000732422,0.999023,-0.040561,0.167131,0.131637
19410,0,-0.000976562,0.999512,0.142545,0.0450611,0.0400841
19420,-0.000244141,-0.0012207,0.999512,-0.0710785,0.0450611,-0.020951
19430,-0.000244141,-0.0012207,0.999023,0.0204742,-0.0464916,-0.0514686
19440,-0.000244141,-0.000732422,0.998779,0.0204742,-0.107527,0.0706017
19450,-0.000244141,-0.000244141,0.999023,0.20358,0.136614,0.101119
19460,-0.000488281,-0.000244141,0.999268,-0.101596,0.0755787,0.131637
19470,-0.000488281,-0.000244141,0.999512,0.0204742,0.0755787,-0.143021
19480,-0.000488281,-0.000244141,0.999268,0.112027,0.0755787,0.0706017
19520,0.000488281,-0.000244141,1.00049,0.0204742,-0.0770092,-0.143021
19530,0.000488281,-0.000488281,1.00024,-0.0100434,-0.015974,-0.020951
19540,0,-0.000488281,0.999512,0.0204742,0.0145435,0.101119
19550,0,-0.000488281,0.999756,0.0509918,0.0145435,0.00956655
19560,0,-0.000488281,0.999268,0.0509918,-0.015974,0.0706017
19570,0,-0.000244141,0.998779,0.0509918,0.136614,-0.020951
19580,0.000244141,-0.000244141,0.999512,0.173062,0.0145435,-0.112504
19590,0,-0.000732422,1,0.0815094,0.0450611,-0.143021
19600,0,-0.000244141,1,0.0815094,0.0145435,0.0706017
19610,-0.000244141,-0.000488281,1,-0.0100434,0.106096,0.00956655
19620,0,-0.000488281,0.999512,-0.0100434,0.0755787,0.101119
19630,0,-0.000732422,1.00024,0.0509918,0.0755787,-0.0514686
19640,-0.000488281,-0.000488281,1.00098,0.0509918,-0.015974,0.0706017
19650,-0.000244141,-0.000488281,1.00024,-0.162631,0.106096,0.0400841
19660,-0.000488281,-0.000244141,1,0.0815094,0.167131,-0.020951
19670,-0.000488281,-0.000244141,1.00049,-0.040561,-0.015974,0.00956655
19680,-0.000488281,-0.000244141,1.00049,0.112027,0.0450611,-0.0514686
19690,-0.000488281,-0.000244141,1.00073,-0.0100434,-0.107527,0.0706017
19700,-0.000244141,0,1.00024,0.112027,-0.015974,0.0706017
19710,0.000244141,0,1.00049,0.0509918,0.0755787,0.162154
19720,0.000488281,-0.000244141,0.999756,0.112027,0.0755787,0.162154
19730,0.000488281,-0.000488281,0.999023,0.0509918,-0.0464916,-0.020951
19740,0.000732422,-0.000244141,0.999023,0.0204742,0.0755787,0.101119
19750,0.000244141,-0.000488281,0.999268,-0.0100434,0.167131,-0.0819862
19760,0.000488281,-0.000488281,0.999023,-0.0710785,0.0755787,0.22319
19770,0,-0.000732422,0.999512,0.0204742,0.0755787,-0.0819862
19780,0.000244141,-0.000488281,0.998779,-0.0100434,-0.015974,-0.173539
19790,0,-0.000732422,0.998535,0.0509918,0.0145435,-0.020951
19800,0,-0.000488281,0.999023,0.0509918,0.0450611,0.0400841
19810,0,-0.000488281,0.999268,-0.0100434,0.106096,0.131637
19820,0.000244141,-0.000488281,0.999756,0.0204742,-0.0464916,-0.0819862
19830,0.000244141,0,0.999023,0.0204742,-0.015974,0.00956655
19840,0.000488281,-0.000976562,0.999512,0.0509918,0.106096,0.0400841
19850,0.000732422,-0.0012207,0.999512,0.0815094,0.0145435,-0.0514686
19860,0.000244141,-0.0012207,0.999512,-0.0100434,-0.015974,0.0400841
19870,0.000488281,-0.000976562,0.999512,-0.040561,0.0755787,0.00956655
19880,0.000488281,-0.000976562,0.999756,-0.040561,-0.015974,-0.0514686
19890,0.000488281,-0.000976562,0.999512,0.0509918,-0.0770092,0.101119
19900,0.000488281,-0.000976562,0.999756,0.0815094,0.106096,0.0400841
19910,0.000244141,-0.000732422,1.00024,0.0509918,-0.107527,-0.020951
19920,0.000488281,-0.000976562,1.00049,-0.040561,0.136614,0.0400841
19930,0.000976562,-0.000976562,1.00049,-0.040561,-0.0770092,0.162154
19940,0.000488281,-0.000732422,1,-0.0100434,0.0145435,-0.0819862
19950,0.000488281,-0.000976562,0.999268,0.0509918,0.136614,-0.0819862
19960,0.000488281,-0.000976562,0.999756,0.0204742,0.106096,0.00956655
19970,0,-0.0012207,1,-0.101596,-0.0464916,0.101119
19980,-0.000244141,-0.00146484,1.00024,0.0204742,-0.015974,0.0706017
20000,0,-0.000976562,1,-0.101596,0.0755787,-0.020951
20010,0.000488281,-0.0012207,1.00049,-0.132114,0.0755787,0.0706017
20020,0.000488281,-0.000488281,0.999756,0.0204742,0.0755787,-0.020951
20030,0.000732422,-0.000488281,0.999512,0.0204742,-0.0770092,-0.020951
20040,0.000732422,0,0.999756,0.142545,-0.107527,-0.020951
20050,0.000488281,-0.000488281,0.999512,-0.0100434,0.0145435,-0.0819862
20060,0.000488281,-0.000732422,0.999512,-0.0710785,-0.0770092,0.0706017
20070,0.000244141,-0.000976562,1,0.0204742,0.136614,-0.0514686
20080,0.000244141,-0.000732422,0.999756,-0.0100434,0.0145435,0.0400841
20090,-0.000244141,-0.000732422,0.999756,-0.0100434,0.106096,0.0706017
20110,0,-0.000488281,1,-0.040561,-0.107527,0.101119
20120,0,-0.000732422,0.999512,-0.040561,0.0145435,-0.0514686
20130,0,-0.000488281,0.999268,-0.040561,0.167131,0.101119
20140,-0.000244141,-0.000488281,0.999023,-0.162631,0.0145435,-0.0819862
20150,0,-0.000488281,0.999023,0.173062,-0.015974,0.00956655
20160,-0.000244141,-0.000732422,0.999023,-0.0710785,-0.015974,0.00956655
20170,-0.000244141,-0.000976562,0.999756,0.142545,0.0450611,-0.020951
20180,-0.000488281,-0.000244141,1.00024,0.0815094,0.0145435,0.0400841
20190,-0.000488281,-0.000488281,1,-0.040561,0.0145435,0.00956655
20200,-0.000488281,-0.000732422,0.999512,-0.0100434,0.0145435,0.0400841
20210,-0.000244141,-0.000732422,0.999756,-0.0710785,0.0450611,0.192672
20220,0,-0.000976562,0.999268,-0.0100434,-0.015974,-0.0514686
20230,-0.000244141,-0.000732422,0.999512,-0.0710785,0.106096,0.101119
20240,0,-0.0012207,0.999756,-0.0100434,-0.0464916,-0.0514686
20250,0,-0.000732422,1,0.0204742,-0.0770092,-0.0819862
20260,-0.000244141,-0.000732422,1.00073,0.112027,-0.015974,0.00956655
20280,-0.000488281,-0.000976562,1,0.0509918,0.106096,0.0706017
20290,-0.000244141,-0.000976562,0.999512,-0.0100434,0.0145435,-0.204057
20300,-0.000244141,-0.000976562,0.999268,-0.0100434,-0.015974,0.101119
20310,-0.000244141,-0.000976562,0.999268,-0.0100434,0.0145435,-0.112504
20320,-0.000244141,-0.000976562,0.999023,-0.101596,0.0755787,0.0706017
20330,-0.000488281,-0.000976562,0.999268,-0.040561,-0.0464916,-0.0514686
20340,-0.000732422,-0.000732422,0.999023,-0.162631,-0.0770092,0.0706017
20350,-0.000732422,-0.000244141,0.999512,0.0204742,-0.0464916,-0.020951
20360,-0.000244141,-0.000244141,0.999512,-0.0100434,0.0145435,-0.020951
20370,0,0,0.999756,0.0204742,0.0145435,-0.020951
20380,-0.000244141,-0.000244141,1.00024,-0.0100434,0.0450611,-0.0819862
20390,0.000244141,-0.000488281,1,0.0509918,-0.015974,0.0706017
20400,0.000244141,-0.000244141,1.00049,0.0204742,0.0145435,-0.020951
20400,0.000244141,-0.000244141,1.00049,0.0204742,0.0145435,-0.020951
20420,0,-0.000244141,1.00024,0.112027,0.0145435,0.00956655
20430,-0.000244141,-0.000488281,1.00024,0.0815094,0.106096,0.00956655
20440,0,-0.000488281,1.00024,-0.0100434,0.0755787,0.0400841
20450,0,0,1.00024,0.0509918,0.0755787,-0.020951
20460,-0.000244141,0.000244141,0.999756,0.0509918,-0.0770092,-0.020951
20470,-0.000244141,-0.000244141,1,-0.0710785,0.0145435,0.0400841
20480,-0.000244141,0,0.999756,-0.0100434,0.0145435,-0.0514686
20490,-0.000488281,0,1.00024,-0.101596,-0.0770092,-0.0514686
20500,-0.000488281,-0.000244141,1.00049,0.0204742,0.0450611,-0.020951
20510,-0.000244141,-0.000732422,1.00024,-0.0100434,0.106096,-0.0514686
20520,0,-0.000488281,0.999756,-0.193149,-0.0464916,-0.0514686
20530,-0.000488281,-0.000732422,1,-0.040561,0.0450611,0.101119
20540,0,-0.000488281,1,-0.0100434,0.0450611,0.00956655
20550,0,-0.000488281,0.999756,0.0815094,-0.107527,0.192672
20560,0.000244141,-0.000244141,1.00024,0.112027,0.106096,-0.0514686
20570,0,-0.000488281,1.00024,0.295132,-0.107527,-0.112504
20580,0,-0.000244141,1,0.0815094,-0.015974,-0.173539
20590,-0.000244141,-0.000732422,1.00024,0.0815094,0.0450611,-0.0819862
20600,-0.000244141,-0.000732422,1.00024,-0.040561,0.0145435,0.131637
20610,-0.000244141,-0.000732422,0.999756,-0.132114,0.106096,0.00956655
20620,0,-0.000976562,1,0.142545,0.228167,-0.020951
20650,0,-0.000244141,0.999756,0.0204742,0.106096,-0.143021
20660,-0.000244141,-0.000488281,0.999512,-0.0100434,0.0755787,0.00956655
20670,-0.000244141,-0.000732422,0.999512,0.0204742,0.0145435,-0.112504
20690,0.000244141,-0.000976562,0.999512,-0.0710785,0.197649,0.00956655
20710,0.000244141,-0.00146484,0.999268,0.0204742,0.0145435,-0.0514686
20720,-0.000488281,-0.0012207,0.999268,0.0815094,0.0755787,0.162154
20730,-0.000732422,-0.0012207,0.999512,0.112027,0.0755787,-0.173539
20740,-0.000244141,-0.0012207,0.999756,0.0204742,0.0450611,-0.0514686
20750,-0.000244141,-0.0012207,0.999512,0.142545,0.0755787,-0.0819862
20760,-0.000244141,-0.000976562,1,-0.0100434,0.0450611,-0.0819862
20770,-0.000488281,-0.000488281,1,0.112027,-0.0770092,-0.020951
20780,-0.000732422,-0.000488281,0.999756,0.0815094,0.0755787,-0.020951
20790,-0.000488281,-0.000488281,0.999512,0.0509918,0.0450611,0.0706017
20800,-0.000732422,-0.000244141,0.999268,-0.0100434,0.0145435,0.00956655
20810,-0.000732422,-0.000488281,0.999023,-0.040561,0.106096,-0.020951
20820,-0.000244141,-0.000488281,0.998779,0.0815094,-0.0770092,0.131637
20840,0.000244141,-0.000244141,0.998535,-0.101596,0.106096,-0.020951
20860,-0.000244141,-0.000244141,0.998779,0.0204742,0.0450611,-0.0819862
20880,-0.000244141,-0.000244141,0.999268,-0.0710785,-0.015974,-0.020951
20890,-0.000488281,-0.000488281,0.999512,-0.132114,0.106096,0.00956655
20900,-0.000488281,-0.000244141,0.999512,0.0204742,-0.015974,0.101119
20910,-0.000244141,-0.000488281,0.999512,0.0204742,-0.015974,-0.0819862
20930,-0.000244141,-0.000244141,0.999268,0.0815094,0.0145435,-0.0819862
20950,0.000244141,0,0.999268,0.112027,0.0145435,0.00956655
20960,0.000244141,0.000244141,1,0.0509918,0.167131,0.0400841
20980,0.000488281,0,0.999512,-0.040561,-0.0464916,-0.0819862
20990,0.000732422,0.000244141,0.999756,0.112027,0.0755787,0.101119
21000,0.000976562,-0.000244141,0.999512,0.112027,0.0450611,0.0400841
21010,0.0012207,0,0.999512,-0.0710785,0.136614,-0.0819862
21020,0.000732422,0,0.999512,0.0204742,-0.015974,-0.0819862
21030,0.000732422,0,0.999512,0.0509918,0.167131,-0.0514686
21040,0.000732422,-0.000488281,0.999512,0.0509918,-0.0464916,-0.0514686
21060,0.000488281,0.000244141,0.999268,-0.0100434,0.0755787,0.162154
21070,0,0,0.998535,0.0204742,0.136614,0.0400841
21080,0,0,0.998779,-0.0100434,-0.0464916,-0.0819862
21090,-0.000244141,0,0.998779,-0.040561,0.0450611,-0.020951
21100,0,-0.000488281,0.998779,0.0509918,-0.015974,-0.020951
21110,0,-0.000244141,0.998047,-0.0710785,0.0755787,0.00956655
21140,-0.000488281,0,0.999023,0.0509918,-0.0464916,0.00956655
21150,-0.000732422,0,0.999023,0.112027,0.106096,0.162154
21170,-0.000732422,-0.000976562,1,0.0204742,0.167131,-0.0819862
21180,-0.000488281,-0.000732422,1.00024,0.0204742,0.0755787,-0.143021
21190,-0.000244141,-0.000488281,1.00024,0.112027,0.167131,0.162154
21200,-0.000488281,-0.000488281,0.999756,0.0509918,-0.0770092,0.0400841
21220,-0.000488281,-0.000488281,0.999756,-0.040561,-0.0464916,0.131637
21230,-0.000244141,-0.000976562,0.999512,0.0815094,-0.0464916,0.0706017
21260,-0.000244141,-0.000976562,0.999023,0.0815094,0.0755787,-0.0514686
21290,0.000244141,-0.000976562,0.999023,0.112027,0.0145435,0.131637
21310,0,-0.000976562,0.999023,-0.0100434,-0.0464916,-0.020951
21320,0.000244141,-0.000976562,0.998535,0.0815094,0.0145435,0.00956655
21360,0.000244141,-0.000732422,0.999023,0.0509918,-0.138044,0.101119
21370,0.000244141,-0.000732422,0.999268,-0.0100434,0.0755787,-0.143021
21390,0.000244141,-0.000976562,0.999512,0.0509918,0.167131,-0.020951
21400,0.000244141,-0.000732422,0.999756,-0.0100434,-0.015974,0.0400841
21420,0.000244141,-0.000976562,1,0.0815094,0.0145435,0.0706017
21450,0.000244141,-0.0012207,1.00049,0.0509918,-0.015974,-0.020951
21460,-0.000244141,-0.000732422,1.00073,0.0204742,0.106096,-0.112504
21470,-0.000244141,-0.000976562,1.00049,0.0204742,0.106096,-0.143021
21500,-0.000244141,-0.000976562,0.999756,0.0204742,0.0755787,0.101119
21550,0,-0.000488281,0.999023,-0.101596,-0.015974,-0.020951
21560,-0.000244141,-0.000244141,0.998535,-0.0100434,0.0755787,0.0706017
21580,-0.000488281,-0.000732422,0.999268,0.142545,0.106096,-0.0819862
21590,-0.000244141,-0.000732422,0.998779,-0.0100434,0.0755787,0.0706017
21600,-0.000244141,-0.000732422,0.998779,0.0815094,-0.0770092,-0.112504
21610,-0.000488281,-0.000976562,0.998779,0.112027,-0.0464916,-0.112504
21660,-0.000488281,-0.0012207,0.998779,0.0815094,0.0450611,0.131637
21710,0.000244141,-0.000976562,0.999268,0.0204742,0.136614,-0.020951
21720,0,-0.000732422,0.999756,0.112027,0.0145435,-0.0514686
21730,0,-0.000732422,1,0.173062,0.0755787,0.00956655
21750,-0.000732422,-0.000244141,1.00049,0.112027,0.0755787,0.00956655
21760,-0.000488281,-0.000244141,1.00073,0.0204742,0.197649,0.162154
21770,-0.000244141,-0.000488281,1.00049,0.0204742,0.136614,0.00956655
21790,0,-0.000244141,1,0.0204742,0.136614,-0.020951
21800,0,-0.000976562,0.999268,-0.040561,0.0755787,0.101119
21820,-0.000244141,-0.000732422,0.999023,0.0509918,-0.0464916,-0.0514686
21850,-0.000244141,-0.000488281,0.998535,0.0509918,-0.015974,0.00956655
21860,-0.000732422,-0.000732422,0.999023,-0.0100434,0.136614,0.101119
21880,-0.000976562,-0.000732422,0.998291,0.173062,-0.015974,0.0400841
21910,-0.000976562,-0.000488281,0.998779,-0.040561,0.0755787,0.00956655
21920,-0.000732422,-0.000488281,0.999023,0.20358,0.0145435,-0.204057
21930,-0.000732422,-0.000976562,0.999268,-0.0100434,0.0755787,-0.020951
21940,-0.000488281,-0.0012207,0.999023,0.0204742,-0.0464916,-0.143021
21950,-0.000976562,-0.0012207,0.999023,0.0204742,0.106096,-0.0514686
21960,-0.000732422,-0.0012207,0.999023,0.0815094,-0.015974,-0.0514686
21970,-0.000732422,-0.000976562,0.998535,0.0815094,0.0755787,0.0400841
21980,-0.000488281,-0.000976562,0.998779,-0.0100434,0.0755787,-0.020951
22000,-0.000488281,-0.000732422,0.998291,-0.040561,0.0145435,0.101119
22010,-0.000732422,-0.000976562,0.998535,0.0204742,0.0145435,-0.020951
22020,-0.000488281,-0.000732422,0.998047,0.0509918,0.0450611,0.00956655
22030,-0.000244141,-0.0012207,0.998047,0.112027,0.0755787,-0.173539
22050,-0.000488281,-0.000732422,0.998779,0.173062,0.136614,0.00956655
22070,-0.000976562,-0.000244141,0.998779,0.264615,-0.015974,-0.0514686
22080,-0.0012207,-0.000488281,0.998535,0.142545,-0.19908,-0.0819862
22090,-0.0012207,-0.000732422,0.999268,-0.0100434,0.0755787,-0.0819862
22100,-0.0012207,-0.000732422,0.999268,0.234097,-0.0464916,-0.0514686
22120,-0.000976562,-0.000244141,0.999268,0.112027,0.0755787,-0.112504
22130,-0.000244141,-0.000244141,0.998779,0.0509918,-0.015974,0.0400841
22140,-0.000244141,0,0.999023,-0.0100434,-0.015974,-0.0514686
22150,-0.000488281,-0.000244141,0.999023,-0.0100434,-0.015974,0.101119
22160,-0.000976562,0,0.999756,0.112027,0.0755787,0.131637
22170,-0.0012207,0.000244141,1,0.112027,0.0755787,0.101119
22180,-0.000976562,0.000488281,0.999512,0.173062,0.0450611,-0.0514686
22190,-0.000732422,0.000244141,0.999756,0.0509918,0.0145435,0.0706017
22200,-0.000976562,0.000488281,0.999512,0.0815094,0.106096,0.101119
22210,-0.000244141,0.000244141,0.999268,0.0815094,-0.0464916,0.00956655
22220,-0.000488281,0,0.999512,0.142545,-0.015974,-0.0514686
22230,-0.000244141,0,0.999756,0.0509918,-0.0770092,0.0400841
22240,0,-0.000244141,0.999268,0.0509918,0.0450611,0.131637
22250,0,-0.000244141,0.999268,0.0509918,0.0145435,-0.0514686
22260,0.000488281,-0.000244141,0.999268,0.0815094,0.0145435,0.131637
22270,0.000244141,-0.000244141,0.998779,0.112027,-0.0464916,0.101119
22280,0.000488281,0,0.999023,0.0204742,0.136614,-0.0819862
22290,0.000732422,0,0.999268,-0.040561,0.0450611,-0.173539
22300,0.000488281,0,0.999512,0.112027,0.0450611,-0.0514686
22310,0,-0.000244141,0.999268,0.0509918,0.106096,0.00956655
22320,0,-0.000488281,0.999023,-0.040561,0.0450611,0.0400841
22330,0,-0.000732422,0.999023,-0.0100434,0.228167,0.0400841
22340,0,-0.000976562,0.999512,-0.040561,0.106096,0.0400841
22350,-0.000244141,-0.0012207,0.999512,0.142545,0.0450611,0.00956655
22360,0,-0.0012207,0.999512,-0.0710785,0.0450611,-0.0514686
22380,0.000488281,-0.000488281,1,0.112027,-0.0770092,-0.0819862
22390,0.000976562,-0.000732422,0.999512,0.0204742,0.0145435,-0.0819862
22400,0.000976562,-0.000488281,1,0.0204742,-0.015974,-0.0819862
22410,0.000732422,-0.000488281,0.999756,-0.0100434,0.0450611,0.00956655
22420,0.000732422,-0.000488281,0.999756,-0.040561,0.0755787,0.00956655
22430,0.000488281,-0.000488281,1,-0.132114,0.106096,0.00956655
22440,0.000732422,-0.000244141,0.999268,0.0815094,0.106096,-0.143021
22450,0.000488281,-0.000244141,0.999512,0.0815094,0.197649,0.101119
22460,0.000244141,-0.000488281,1,-0.0710785,0.0755787,0.131637
22470,0.000244141,-0.000244141,1,0.0204742,0.0145435,0.0706017
22480,0.000488281,-0.000244141,1,0.0509918,0.136614,-0.0819862
22490,0,0,0.999512,0.0204742,-0.107527,0.101119
22500,-0.000244141,-0.000244141,0.999268,-0.0100434,0.0450611,-0.112504
22510,-0.000244141,-0.000244141,0.999756,0.234097,-0.0464916,0.0400841
22520,0,0,1.00024,0.112027,0.197649,-0.020951
22530,0,0,1.00024,-0.0100434,0.228167,0.0400841
22540,0,0.000244141,1.00024,0.112027,0.0755787,0.00956655
22550,-0.000244141,-0.000244141,0.999268,-0.040561,-0.0464916,0.101119
22560,0,-0.000488281,0.999268,-0.0710785,0.0450611,0.00956655
22570,0.000244141,-0.000488281,0.999756,-0.101596,0.106096,-0.112504
22580,0.000488281,-0.000488281,0.999512,0.0815094,0.106096,-0.0514686
22590,0.000488281,-0.000488281,0.999023,0.0204742,-0.015974,-0.0514686
22600,0.000244141,-0.000244141,0.999023,0.0509918,0.0755787,0.0400841
22610,0.000244141,0,0.999512,0.0815094,0.0450611,-0.173539
22620,-0.000244141,0,0.999512,-0.0100434,0.106096,-0.020951
22630,0,0,0.999268,0.0509918,0.136614,-0.204057
22640,0.000244141,0,0.999512,0.0815094,0.0755787,0.00956655
22650,-0.000244141,0,1,-0.101596,-0.015974,-0.143021
22660,-0.000488281,0,0.999756,0.0509918,-0.138044,-0.020951
22670,-0.000732422,-0.000244141,1,0.112027,-0.0770092,-0.204057
22680,-0.000488281,-0.000488281,0.999756,0.20358,0.136614,-0.112504
22690,-0.000732422,-0.000244141,1.00024,0.0509918,-0.015974,0.0706017
22700,-0.000488281,-0.000244141,0.999512,-0.040561,0.106096,-0.0819862
22710,-0.000732422,-0.000244141,0.999512,0.0204742,-0.015974,-0.020951
22720,-0.000732422,-0.000732422,0.999512,-0.0100434,-0.0464916,-0.173539
22740,-0.000488281,-0.000732422,0.999512,0.0509918,0.0145435,0.101119
22750,-0.000488281,-0.000732422,0.999756,-0.040561,0.106096,-0.020951
22760,-0.000488281,-0.000732422,0.999512,0.0509918,0.0755787,-0.020951
22770,-0.000488281,-0.000732422,1,-0.0100434,0.0755787,-0.0514686
22780,-0.000488281,-0.000732422,0.999756,0.142545,-0.0770092,-0.020951
22790,-0.000488281,-0.000732422,0.999268,0.0509918,0.0755787,-0.234574
22800,-0.000732422,-0.000732422,0.998535,0.0204742,-0.015974,-0.0819862
22810,-0.000488281,-0.000488281,0.998291,0.0815094,0.0450611,-0.020951
22820,-0.000488281,-0.000488281,0.998291,0.0509918,-0.015974,0.131637
22830,-0.000488281,-0.000732422,0.998535,-0.0100434,0.0145435,-0.0819862
22840,0,-0.000732422,0.999268,0.0204742,-0.015974,0.0706017
22850,-0.000244141,-0.000732422,0.999023,-0.0710785,0.136614,-0.143021
22860,0,-0.000488281,0.998779,0.0204742,0.136614,0.0400841
22870,0,-0.000732422,0.999023,-0.0710785,0.106096,0.101119
22890,-0.000488281,-0.000976562,0.999268,0.0815094,0.0755787,0.00956655
22900,-0.000732422,-0.000488281,0.998535,0.0509918,0.0145435,-0.020951
22910,-0.000488281,-0.000488281,0.998047,-0.0100434,0.106096,0.0400841
22920,-0.000732422,-0.000488281,0.998535,0.0815094,-0.0770092,0.00956655
22940,-0.000732422,-0.000488281,0.997314,0.0509918,0.106096,-0.143021
22950,-0.000488281,-0.000732422,0.997559,0.0815094,0.0755787,-0.143021
22980,0,-0.0012207,0.998291,0.112027,0.106096,0.101119
22990,0.000244141,-0.00146484,0.998535,0.112027,0.0450611,-0.020951
23010,0.000244141,-0.00146484,0.998779,0.20358,-0.015974,-0.020951
23040,0,-0.000976562,0.998779,-0.0100434,-0.015974,-0.0514686
23050,-0.000244141,-0.000976562,0.999023,0.173062,0.0145435,-0.0514686
23060,0.000488281,-0.000976562,0.999023,0.0204742,-0.107527,-0.0514686
23070,0.000488281,-0.0012207,0.998779,-0.132114,0.0450611,0.0400841
23090,0.000244141,-0.000976562,0.999023,-0.0100434,0.136614,-0.020951
23100,0,-0.000732422,0.999023,0.142545,0.0450611,-0.112504
23110,-0.000244141,-0.000976562,0.999268,0.0509918,-0.107527,-0.020951
23130,-0.000488281,-0.000976562,0.999512,-0.040561,-0.0464916,-0.020951
23140,0,-0.000976562,0.999268,0.0815094,0.106096,0.0706017
23150,-0.000244141,-0.000732422,0.999268,0.173062,-0.0464916,0.00956655
23160,-0.000244141,-0.000488281,0.999023,-0.040561,-0.015974,-0.112504
23170,-0.000244141,-0.000976562,0.999023,0.0815094,-0.168562,-0.020951
23190,0.000244141,-0.000732422,0.999023,0.173062,-0.015974,0.0400841
23220,0.000244141,-0.000732422,0.999512,0.0815094,0.0145435,-0.0819862
23230,0.000732422,-0.000488281,0.999512,0.173062,0.0145435,-0.143021
23240,0.000488281,-0.000732422,0.999512,-0.040561,-0.107527,0.0706017
23250,0.000488281,-0.000732422,0.999756,0.112027,0.0145435,0.101119
23260,0.000732422,-0.000976562,1,0.173062,0.0145435,-0.020951
23270,0.000732422,-0.0012207,0.999512,0.0509918,0.0450611,-0.143021
23280,0.000488281,-0.0012207,0.999023,0.0204742,-0.0770092,0.192672
23290,0.000488281,-0.000976562,0.999268,-0.040561,0.106096,0.0400841
23300,0.000488281,-0.000976562,1,-0.0100434,0.0145435,0.0706017
23320,0.000244141,-0.000732422,0.999023,-0.101596,0.0755787,-0.112504
23330,0.000244141,-0.000488281,0.999268,-0.040561,-0.0464916,-0.112504
23350,-0.000244141,-0.000244141,0.999512,0.0204742,0.106096,-0.143021
23360,-0.000244141,-0.000244141,0.999023,0.0204742,-0.015974,-0.0819862
23370,0.000244141,-0.000488281,0.998047,-0.0710785,0.167131,0.00956655
23380,0.000244141,-0.000488281,0.998535,0.112027,0.0450611,-0.020951
23400,0.000732422,-0.000732422,0.998291,0.0509918,0.0755787,0.0400841
23410,0.000732422,-0.000488281,0.998291,0.0204742,0.167131,0.131637
23420,0.000732422,-0.000488281,0.998535,0.0204742,0.136614,-0.020951
23440,0.000488281,-0.000488281,0.999512,0.0815094,0.0145435,0.00956655
23450,0.000488281,-0.000976562,0.998535,0.0815094,0.0145435,0.131637
23460,0.000244141,-0.000976562,0.998779,0.0815094,-0.0464916,-0.020951
23470,0.000732422,-0.0012207,0.999023,-0.0100434,0.106096,-0.020951
23480,0.000488281,-0.0012207,0.999268,0.173062,-0.168562,-0.0514686
23490,0.000244141,-0.000976562,0.999268,-0.0710785,-0.0464916,0.0400841
23500,0,-0.000976562,0.999512,-0.0100434,0.0755787,-0.112504
23510,0.000244141,-0.000976562,0.999023,0.0509918,-0.015974,0.0400841
23520,0.000244141,-0.000976562,0.998291,0.112027,0.0755787,0.00956655
23550,0.000488281,-0.000732422,0.999023,0.112027,-0.0464916,-0.0514686
23570,0.000244141,-0.000732422,0.999268,-0.193149,0.0145435,0.101119
23580,0.000244141,-0.000976562,0.999268,0.0509918,-0.0464916,-0.143021
23630,0,-0.000488281,0.997803,-0.0710785,-0.015974,0.0400841
23640,0.000244141,-0.000244141,0.997803,0.173062,-0.0770092,-0.020951
23660,0.000244141,-0.000244141,0.997803,-0.040561,0.0450611,0.00956655
23680,0.000244141,-0.000976562,0.998047,0.0509918,0.106096,0.101119
23690,0,-0.000976562,0.998047,-0.040561,0.136614,-0.0819862
23710,0.000244141,-0.000732422,0.999023,0.112027,0.167131,0.00956655
23720,0,-0.000488281,0.999023,-0.040561,-0.0464916,0.0706017
23740,0.000244141,-0.000732422,0.999268,-0.040561,0.0755787,0.0400841
23750,0.000488281,-0.000488281,0.999023,0.0509918,0.197649,-0.0819862
23760,0.000488281,-0.000488281,0.999756,0.112027,0.0755787,0.253707
23780,0.000244141,-0.000488281,0.998535,0.0509918,0.0755787,0.0706017
23790,0.000244141,-0.000488281,0.999023,0.0815094,0.0755787,0.00956655
23810,0.000732422,-0.000488281,0.999023,-0.040561,0.106096,0.00956655
23820,0.000732422,-0.000244141,0.998779,0.0204742,0.136614,-0.0819862
23830,0.000488281,-0.000244141,0.998779,0.112027,0.106096,0.101119
23840,0.000488281,-0.000244141,0.998779,0.0815094,0.0755787,-0.0819862
23850,0.000488281,-0.000488281,0.999023,0.0204742,-0.0464916,0.0400841
23860,0.000488281,-0.000488281,0.998779,-0.0710785,0.106096,-0.0514686
23870,0.000732422,-0.000488281,0.998047,0.112027,0.0145435,-0.143021
23890,0.000732422,-0.000488281,0.998535,0.112027,-0.015974,0.0400841
23900,0.000976562,-0.000488281,0.998291,0.0815094,-0.0464916,-0.0819862
23920,0.000732422,-0.000244141,0.999268,0.142545,0.106096,-0.020951
23940,0.000732422,0,0.999512,0.0509918,-0.015974,0.131637
23950,0.000732422,0,0.998779,-0.0710785,-0.107527,-0.0514686
23960,0.000732422,0,0.999512,0.0509918,-0.015974,0.0400841
23970,0.000732422,0,0.999268,0.0509918,0.0755787,-0.020951
23980,0.0012207,0,0.999268,0.112027,-0.0464916,-0.020951
23990,0.0012207,-0.000244141,1,0.173062,-0.0464916,0.00956655
24010,0.000976562,-0.000244141,0.999268,0.0815094,-0.107527,-0.173539
24020,0.000976562,-0.000488281,0.999023,0.173062,-0.0464916,-0.173539
24030,0.000976562,0,0.998779,0.0204742,0.136614,-0.0514686
24040,0.000732422,-0.000244141,0.999023,0.173062,-0.0464916,0.0400841
24050,0.000488281,-0.000244141,0.999023,0.0815094,-0.0464916,-0.0514686
24060,0.000244141,-0.000244141,0.998291,0.142545,0.0755787,-0.0819862
24080,0.000244141,-0.000244141,0.998779,0.0204742,0.0450611,0.00956655
24100,0.000244141,-0.000488281,0.999268,0.173062,-0.015974,-0.0514686
24110,0.000244141,-0.000488281,0.999268,-0.0100434,0.106096,0.00956655
24120,0.000488281,-0.000244141,0.998779,-0.0100434,0.136614,-0.020951
24130,0.000732422,-0.000244141,0.998535,-0.0100434,0.167131,-0.020951
24140,0.000732422,-0.000244141,0.998535,0.112027,-0.138044,-0.112504
24150,0.000488281,-0.000244141,0.998535,0.142545,0.0145435,0.0400841
24160,0.000244141,-0.000488281,0.998291,0.0815094,0.0450611,-0.173539
24170,0.000488281,-0.000244141,0.999268,0.112027,-0.107527,-0.020951
24180,0,-0.000488281,0.999268,0.0509918,0.136614,-0.020951
24190,0.000732422,-0.000732422,0.999023,0.0204742,-0.138044,-0.0819862
24210,0.000244141,-0.000488281,0.998291,0.0509918,0.0450611,-0.173539
24230,0.000244141,-0.000732422,0.997803,0.173062,0.0755787,-0.173539
24240,0.000244141,-0.0012207,0.998291,-0.0100434,0.0755787,0.101119
24250,0.000244141,-0.000488281,0.998047,-0.0710785,-0.0770092,-0.0819862
24270,0,-0.000488281,0.997803,-0.040561,0.0450611,-0.0514686
24280,-0.000244141,-0.000244141,0.998535,0.0204742,-0.015974,0.192672
24290,-0.000732422,-0.000488281,0.999023,-0.0100434,0.0450611,-0.0514686
24310,0.000244141,-0.000244141,0.998779,0.0815094,-0.0464916,-0.143021
24320,0.000488281,0,0.998291,0.112027,0.167131,-0.020951
24330,0.000488281,-0.000244141,0.998291,0.0509918,0.106096,0.0706017
24340,0.000488281,-0.000244141,0.999268,-0.0100434,0.0450611,-0.020951
24350,0.000488281,-0.000488281,0.999268,0.0815094,0.0450611,-0.0819862
24360,0.000732422,-0.000488281,0.999756,-0.040561,0.0450611,-0.112504
24370,0.000488281,-0.000488281,0.999512,-0.0100434,0.167131,0.0706017
24380,0.000488281,-0.000488281,1,0.264615,0.0450611,-0.020951
24390,0.000244141,-0.000488281,0.999512,-0.101596,0.106096,0.00956655
24400,0.000488281,-0.000488281,1,-0.0100434,0.0755787,-0.0514686
24410,0.000488281,-0.000488281,0.999756,0.112027,0.167131,0.101119
24430,0.000732422,-0.0012207,1,0.0204742,-0.015974,0.131637
24450,0.000488281,-0.000976562,0.999512,0.0815094,0.106096,0.0706017
24460,0.000732422,-0.000976562,0.999756,0.112027,0.106096,-0.020951
24470,0.000488281,-0.000488281,0.999512,-0.101596,0.0755787,0.00956655
24480,0.000244141,-0.000244141,0.999023,0.173062,0.0145435,-0.0514686
24490,0.000244141,-0.000488281,0.999023,0.0815094,-0.015974,0.131637
24510,0.000244141,-0.000244141,0.999756,0.0815094,0.0450611,-0.0819862
24520,0.000244141,-0.000488281,0.999756,-0.0100434,0.0450611,0.131637
24530,0.000244141,0,0.999023,-0.0710785,0.0450611,-0.0819862
24540,0.000244141,0.000244141,0.999023,0.112027,0.0450611,-0.143021
24560,0.000244141,0,0.999023,-0.0100434,-0.015974,0.131637
24570,0.000244141,0,0.999512,0.173062,0.0755787,0.0400841
