t,accx,accy,accz,gyrox,gyroy,gyroz
18152,0.000976562,-0.000244141,0.999268,0.0375211,-0.0954866,0.0546277
18162,0.000488281,-0.000488281,0.999512,-0.115067,0.0876188,-0.0979602
18182,0.000732422,-0.000244141,0.999512,0.0375211,-0.156522,-0.0674427
18212,0.000488281,-0.000976562,0.999756,0.0375211,0.0265837,-0.0369251
18272,0.000488281,-0.000732422,0.999023,0.0680387,-0.00393391,-0.0674427
18302,0.000976562,0,0.999512,0.0985563,-0.00393391,-0.0369251
18352,0.000244141,-0.000488281,0.999023,0.00700355,-0.00393391,0.0546277
18392,0.000488281,-0.000732422,0.998779,0.0375211,-0.0954866,-0.0369251
18432,0,-0.00146484,0.998535,-0.0540316,-0.0954866,-0.0369251
18482,0.000488281,-0.000732422,0.999268,0.00700355,0.0265837,-0.0979602
18512,-0.000244141,-0.000976562,0.998779,-0.0845492,-0.0954866,-0.128478
18552,-0.000244141,-0.000976562,0.999023,0.0985563,0.0265837,-0.0369251
18582,-0.000244141,-0.000976562,0.998047,0.0680387,-0.00393391,-0.0979602
18592,-0.000244141,-0.000732422,0.998535,0.129074,-0.0344515,0.0241101
18602,-0.000244141,-0.000976562,0.998535,0.0375211,0.0876188,0.14618
18612,-0.000244141,-0.0012207,0.998535,0.159591,-0.00393391,0.0851452
18622,-0.000244141,-0.00146484,0.998291,-0.023514,0.0265837,-0.0369251
18632,-0.000244141,-0.00146484,0.998535,-0.115067,0.118136,-0.0369251
18642,-0.000488281,-0.000732422,0.998779,-0.023514,0.0876188,0.0546277
18652,0,-0.000976562,0.998779,-0.023514,0.0265837,-0.0369251
18662,0.000244141,-0.00146484,0.999023,0.00700355,-0.187039,-0.0979602
18672,0.000244141,-0.0012207,0.999512,-0.145584,0.0265837,0.0851452
18682,-0.000244141,-0.00146484,0.999268,0.0680387,-0.00393391,-0.0979602
18692,0,-0.00170898,0.999756,0.129074,0.0876188,0.0241101
18702,0.000488281,-0.00170898,0.999756,-0.023514,0.0265837,-0.189513
18712,0.000244141,-0.00146484,0.999756,0.159591,0.270724,-0.0064075
18732,0.000732422,-0.000976562,0.999268,0.0680387,-0.00393391,0.0241101
18742,0.000488281,-0.000732422,0.999268,-0.176102,-0.0954866,-0.0979602
18752,0.000488281,-0.000976562,0.999268,-0.023514,-0.0344515,0.268251
18762,0.000732422,-0.000732422,1,0.00700355,-0.187039,-0.0369251
18772,0.000488281,-0.000732422,1.00024,0.0375211,-0.126004,-0.0979602
18782,0.000244141,-0.000732422,1.00098,0.0985563,-0.156522,-0.158995
18792,0.000244141,-0.000488281,0.999756,0.0985563,0.0571012,0.14618
18802,0,-0.000976562,0.999512,0.00700355,-0.0344515,0.0241101
18812,-0.000244141,-0.000732422,0.999756,0.00700355,-0.0344515,0.0241101
18822,0.000244141,-0.000244141,1,0.0680387,-0.0649691,-0.0979602
18852,0.000244141,-0.000976562,0.998779,0.0985563,-0.00393391,-0.0979602
18862,0.000488281,-0.000976562,0.999023,0.00700355,0.118136,-0.0674427
18872,0.000976562,-0.000976562,0.998535,-0.0845492,0.0265837,-0.0064075
18882,0.000732422,-0.000732422,0.999023,0.0680387,0.0265837,0.0241101
18922,0.000488281,-0.000488281,0.999512,-0.115067,-0.00393391,-0.0674427
18982,0.000244141,-0.000244141,0.998535,-0.023514,0.118136,0.0546277
18992,0,0,0.998291,-0.023514,0.240207,-0.128478
19052,-0.000244141,-0.000244141,0.998779,-0.0540316,-0.0954866,-0.0674427
19092,0.000244141,-0.000732422,0.999023,0.0375211,0.118136,0.0241101
19152,0.000244141,0,0.998291,0.0375211,0.0571012,-0.0369251
19182,0.000244141,-0.000244141,0.999756,-0.023514,0.0265837,-0.0064075
19242,0.000976562,-0.000976562,0.999512,0.129074,-0.156522,-0.0674427
19262,0.000488281,-0.000732422,0.999512,-0.023514,-0.00393391,-0.0064075
19292,0,-0.000488281,0.999512,-0.0540316,0.0876188,-0.0674427
19342,0.000488281,-0.000732422,0.999023,-0.023514,0.0571012,-0.0064075
19382,0.000244141,-0.000488281,0.998779,0.0375211,-0.0344515,-0.0979602
19492,0,-0.000732422,0.998779,-0.0845492,0.0265837,-0.0979602
19512,-0.000244141,-0.000732422,0.998047,0.00700355,0.0571012,0.0546277
19532,0,-0.000488281,0.998535,-0.0845492,0.0265837,0.0546277
19572,0.000488281,-0.000732422,0.999023,-0.20662,-0.0344515,-0.0674427
19642,0.000732422,-0.000488281,0.999023,0.0375211,-0.00393391,0.0241101
19652,0.000244141,-0.000732422,0.998779,0.0680387,0.118136,-0.0064075
19662,0.000244141,-0.000732422,0.999512,0.0680387,0.301242,-0.0979602
19702,-0.000244141,-0.0012207,0.999268,0.0680387,0.118136,0.0546277
19732,0.000244141,-0.000732422,0.998535,-0.023514,0.0876188,-0.0674427
19762,0.000244141,-0.000244141,0.999756,-0.023514,0.0265837,-0.0674427
19812,0.000976562,-0.000976562,0.999268,-0.023514,0.0265837,-0.0979602
19842,0.000976562,-0.000488281,1.00122,-0.115067,-0.126004,-0.0369251
19872,0.000976562,-0.000732422,0.999512,-0.023514,0.179172,-0.189513
19902,0.000732422,-0.000976562,0.999268,0.00700355,-0.00393391,0.14618
19912,0.000976562,-0.000976562,0.999023,0.159591,-0.00393391,-0.0369251
19922,0.000732422,-0.000976562,0.999268,-0.115067,0.0265837,-0.0064075
19932,0.000976562,-0.000976562,0.998779,-0.0540316,-0.0954866,-0.0369251
19942,0.0012207,-0.000976562,0.999512,-0.0845492,-0.00393391,-0.0064075
19952,0.000732422,-0.000732422,0.999023,-0.023514,0.0571012,-0.0979602
19962,0.000976562,-0.000732422,0.999268,0.00700355,-0.0649691,-0.250548
19972,0.000732422,-0.0012207,0.999756,0.129074,-0.00393391,-0.128478
19982,0.000732422,-0.000732422,0.999512,0.00700355,0.0876188,-0.128478
19992,0.000732422,-0.000732422,0.999756,0.0680387,0.0876188,-0.128478
20002,0.000732422,-0.000488281,1.00024,0.159591,-0.0954866,0.0851452
20012,0.000976562,-0.000732422,0.998779,0.0985563,0.0876188,0.176698
20022,0.000976562,-0.000732422,0.998535,-0.023514,0.0265837,0.0241101
20032,0.000732422,-0.000488281,0.998291,0.00700355,0.118136,-0.0064075
20062,0.0012207,-0.000732422,0.998291,-0.023514,-0.0344515,-0.158995
20072,0.0012207,-0.000244141,0.999023,0.0680387,-0.0954866,-0.0369251
20082,0.0012207,-0.000244141,0.998535,-0.176102,-0.126004,0.0241101
20092,0.000976562,-0.000244141,0.998047,0.0375211,-0.0954866,-0.0979602
20102,0.000976562,-0.000732422,0.997803,0.0985563,-0.0649691,-0.220031
20112,0.0012207,-0.000732422,0.997803,0.129074,-0.0954866,-0.158995
20122,0.000976562,-0.000244141,0.998291,-0.023514,0.0876188,-0.0369251
20172,0.000244141,-0.000488281,0.998535,0.0680387,-0.0954866,0.0851452
20202,0.000244141,-0.000244141,0.999512,-0.023514,0.118136,0.0241101
20262,0.000732422,-0.000732422,0.999512,-0.0540316,0.0265837,-0.0674427
20302,0.000732422,-0.000732422,0.999756,-0.0845492,-0.0344515,-0.0369251
20312,0.000488281,-0.000976562,1.00024,0.0375211,-0.0649691,-0.128478
20322,0.000244141,-0.0012207,1,0.0680387,-0.00393391,0.0241101
20332,0.000488281,-0.000976562,0.999756,-0.0845492,-0.00393391,0.0241101
20362,0.000244141,-0.000976562,0.999023,0.159591,0.0876188,-0.0064075
20422,0.000732422,-0.000488281,0.998291,0.0375211,0.0876188,0.0241101
20562,0.000244141,-0.000488281,1.00049,0.0375211,0.0876188,0.0241101
20662,0.000488281,-0.000244141,1,-0.115067,-0.00393391,-0.158995
20692,0.000488281,0,0.998779,-0.0845492,-0.0344515,0.0546277
20702,0.000976562,-0.000244141,0.998779,-0.023514,0.0571012,0.0241101
20712,0.000976562,-0.000732422,0.998779,-0.0540316,-0.0344515,0.0241101
20802,0.000976562,-0.000488281,0.999023,-0.0540316,-0.0344515,0.0546277
20852,0.000732422,-0.000976562,0.999756,-0.115067,-0.00393391,-0.0674427
20942,0.000244141,-0.000976562,0.999756,-0.023514,-0.0954866,-0.0674427
20992,0.000732422,-0.000732422,0.999756,0.129074,-0.0344515,-0.128478
21012,0.000488281,-0.000732422,0.999756,0.0680387,-0.126004,-0.0369251
21052,0,-0.000976562,1,0.0680387,-0.0344515,0.0241101
21072,0,-0.000732422,0.999512,0.00700355,-0.0344515,0.0546277
21112,0,-0.000732422,0.999268,0.0375211,-0.0344515,-0.0369251
21152,0.000732422,-0.000976562,0.999268,0.00700355,0.118136,-0.158995
21172,0.000488281,-0.000976562,0.999023,-0.0540316,0.209689,0.0241101
21192,0.000488281,-0.000976562,0.998291,-0.0540316,0.0876188,0.0241101
21242,0,-0.000976562,0.998535,-0.176102,0.0571012,0.0851452
21252,0,-0.000488281,0.998291,0.00700355,0.118136,-0.128478
21262,0.000244141,-0.000244141,0.998291,-0.023514,-0.0344515,-0.189513
21272,0.000488281,-0.000488281,0.998535,-0.0540316,0.118136,-0.0064075
21282,0.000732422,-0.000488281,0.998779,0.0375211,0.148654,0.0546277
21292,0.000976562,-0.000732422,0.998291,0.159591,-0.0649691,-0.158995
21312,0.000488281,-0.000732422,0.997559,0.0985563,0.0571012,0.115663
21322,0.000732422,-0.0012207,0.998291,0.0985563,0.118136,-0.0674427
21332,0.000732422,-0.0012207,0.999023,0.0680387,-0.126004,0.0851452
21342,0.0012207,-0.000976562,0.998779,-0.023514,-0.217557,-0.0674427
21352,0.0012207,-0.0012207,0.999268,0.129074,0.0876188,-0.0369251
21362,0.000976562,-0.00146484,0.999023,0.0375211,0.148654,-0.0369251
21372,0.000488281,-0.000976562,0.999023,-0.0540316,0.0265837,0.115663
21382,0.000488281,-0.00146484,0.999023,-0.0540316,0.0265837,-0.0369251
21402,0.000732422,-0.000732422,0.999268,0.0375211,0.0571012,0.0546277
21412,0.000488281,-0.000732422,0.998779,0.0985563,0.0876188,-0.128478
21422,0.000244141,-0.000488281,0.998779,-0.145584,0.148654,0.0241101
21442,-0.000244141,-0.000976562,0.999268,0.0375211,0.118136,-0.0369251
21452,0.000244141,-0.000976562,0.998779,0.0375211,-0.0954866,-0.0369251
21462,0.000488281,-0.000732422,0.998535,0.159591,0.0265837,-0.128478
21472,0.000244141,-0.000732422,0.998779,0.129074,0.0571012,-0.0369251
21482,0.000244141,-0.000732422,0.999023,-0.115067,0.148654,-0.128478
21492,0.000488281,-0.000732422,0.999268,0.0985563,0.0265837,-0.0369251
21502,0.000488281,-0.000976562,0.999023,-0.145584,-0.0954866,-0.0979602
21512,0.000244141,-0.000976562,0.998779,-0.145584,0.0571012,-0.0979602
21522,0.000488281,-0.000976562,0.999023,-0.0540316,-0.0649691,0.14618
21532,0.000732422,-0.00170898,0.998535,-0.0540316,0.0265837,-0.0369251
21542,0.000732422,-0.0012207,0.999023,0.0375211,0.0265837,-0.128478
21552,0.000732422,-0.00146484,0.998779,-0.0540316,-0.00393391,-0.0369251
21562,0.000488281,-0.00146484,0.998535,-0.0845492,-0.00393391,-0.0369251
21602,0.000976562,-0.00170898,0.998047,0.00700355,0.0265837,-0.0979602
21622,0.000732422,-0.000976562,0.998047,-0.0845492,0.0571012,-0.0369251
21642,0.000488281,-0.000488281,0.997803,0.0680387,-0.00393391,0.176698
21672,0.000488281,-0.0012207,0.999023,0.0680387,0.118136,-0.0979602
21692,0.000732422,-0.000732422,0.998779,-0.0540316,-0.00393391,-0.0979602
21712,0.000976562,-0.000488281,0.998291,0.0680387,0.118136,0.0546277
21742,0.000976562,-0.000488281,0.998047,-0.023514,-0.0344515,0.0851452
21772,0.000488281,-0.000732422,0.999023,0.00700355,-0.00393391,-0.0369251
21842,0.000732422,-0.000732422,1,-0.176102,-0.156522,-0.0064075
21862,0.000244141,-0.000976562,0.999268,0.00700355,0.179172,0.0241101
21892,0,0,0.998535,-0.0845492,0.0571012,-0.0369251
21912,0.000244141,-0.000244141,0.999023,-0.115067,0.0571012,-0.0064075
21932,0,-0.000488281,0.999756,0.0375211,-0.00393391,0.0851452
21952,0.000244141,-0.000488281,0.998779,0.00700355,-0.0344515,0.0546277
21972,0,-0.000732422,0.999512,0.00700355,0.0265837,-0.0674427
22132,0.000488281,-0.000732422,1,0.0375211,0.118136,-0.0674427
22172,0.000732422,-0.000976562,0.999512,0.0375211,0.179172,-0.0979602
22262,0.000488281,-0.000976562,0.999756,0.00700355,0.0265837,0.0241101
22352,0.000976562,-0.000732422,0.999512,0.0985563,0.0876188,0.0546277
22412,0.000488281,-0.000732422,0.999756,0.00700355,-0.0344515,0.0851452
22422,0.000732422,-0.000732422,1.00049,0.0985563,0.0571012,-0.128478
22442,0.000488281,0,0.999512,0.0680387,-0.0649691,-0.0064075
22462,0.000976562,-0.000488281,0.999023,0.251144,0.0265837,0.0546277
22492,0.000732422,-0.000244141,0.999023,0.00700355,-0.0649691,-0.0979602
22512,0.000488281,-0.000488281,0.998779,-0.115067,-0.0649691,0.0546277
22532,0,-0.000244141,0.999023,0.159591,0.0265837,-0.0064075
22542,0,-0.000244141,1,0.00700355,-0.126004,0.0546277
22552,-0.000244141,-0.000488281,1.00073,-0.023514,0.0571012,0.0546277
22562,0.000244141,-0.000488281,1.00122,-0.023514,-0.126004,0.0546277
22592,0.000732422,-0.000244141,1.00024,-0.0845492,-0.00393391,-0.158995
22602,0,-0.000488281,0.999756,0.0680387,-0.126004,0.0241101
22612,0.000244141,-0.000732422,1,0.0985563,-0.126004,-0.158995
22622,0.000244141,0,0.999756,0.00700355,-0.00393391,-0.0979602
22632,0,-0.000244141,0.999756,0.00700355,-0.0344515,0.0241101
22642,0.000244141,-0.000244141,1,0.0680387,0.0265837,-0.0979602
22662,0,-0.000488281,0.999756,-0.023514,0.118136,0.0546277
22672,0.000244141,-0.000488281,0.999756,-0.023514,0.0571012,-0.0979602
22682,0,-0.000732422,0.999512,0.00700355,0.0265837,-0.0369251
22692,0.000244141,-0.000976562,0.999756,0.00700355,0.0571012,-0.0369251
22702,0.000244141,-0.000488281,0.999756,0.0985563,0.118136,0.0241101
22712,0.000488281,-0.000488281,0.999512,0.129074,0.0265837,0.0546277
22722,0.000244141,-0.000488281,0.999756,-0.023514,0.0876188,-0.0674427
22732,0,0,0.999023,0.0375211,0.0876188,-0.0369251
22752,0.000732422,-0.000732422,0.999023,-0.023514,0.0265837,-0.0369251
22762,0.000488281,-0.000976562,0.999512,0.0375211,-0.0344515,-0.0979602
22772,0.000244141,-0.000488281,0.999512,0.0680387,0.0876188,-0.0064075
22792,0.000244141,-0.000488281,0.999268,0.0680387,-0.00393391,0.0546277
22802,0.000244141,-0.000244141,0.999023,0.0680387,0.118136,0.0241101
22812,0.000488281,-0.000488281,0.998535,0.312179,0.0265837,0.0241101
22822,0.000244141,-0.000244141,0.998779,0.0375211,-0.0649691,-0.0064075
22832,0.000244141,-0.000732422,0.999023,-0.023514,0.0265837,-0.0674427
22842,0.000732422,-0.000976562,0.999268,0.0680387,0.0265837,0.0241101
22862,0.000732422,-0.000732422,0.999756,-0.023514,0.0571012,-0.0674427
22912,0.000732422,-0.000244141,0.998779,0.0375211,-0.0344515,0.0851452
22972,0.000732422,-0.000244141,0.999512,0.00700355,-0.0954866,-0.0064075
23052,0.000732422,-0.000732422,0.999268,-0.023514,-0.0954866,0.0546277
23082,0.000488281,-0.000732422,0.999268,-0.145584,-0.0649691,-0.0064075
23132,0.000488281,-0.000732422,1.00049,0.0680387,-0.156522,0.0851452
23182,0.000732422,-0.000976562,0.999756,0.159591,-0.00393391,-0.158995
23292,0.000488281,-0.0012207,0.998291,0.129074,-0.00393391,0.0241101
23342,0.000732422,-0.000732422,0.998535,0.0680387,0.118136,-0.0064075
23432,0.000732422,-0.000732422,0.999268,0.00700355,0.118136,-0.128478
23442,0.000732422,-0.0012207,1,0.0375211,-0.126004,-0.0674427
23552,0.000732422,-0.000732422,0.998291,-0.115067,0.0571012,-0.0064075
23612,0.000732422,0,0.998779,0.0375211,-0.126004,0.115663
23652,0,0,0.999023,0.00700355,-0.00393391,-0.0064075
23672,0.000732422,-0.000488281,0.999023,-0.176102,-0.0344515,-0.0674427
23702,0.000732422,-0.0012207,0.998779,0.159591,-0.0344515,-0.0064075
23762,0.000976562,-0.000732422,1.00024,-0.0540316,-0.0649691,-0.0369251
23772,0.000732422,-0.000976562,0.999756,0.0375211,0.118136,0.14618
23792,0.000732422,-0.0012207,0.999756,0.220627,-0.0649691,-0.0369251
23822,0.000488281,-0.000976562,0.998779,-0.0540316,0.0265837,0.0546277
23832,0.000976562,-0.000732422,0.999023,0.129074,0.0265837,-0.0369251
23842,0.000976562,-0.000732422,0.999756,-0.0845492,-0.00393391,0.0241101
23852,0.00146484,-0.000488281,1,0.129074,-0.126004,-0.0979602
23862,0.0012207,-0.000732422,0.999512,0.0985563,-0.187039,0.0241101
23892,0.0012207,-0.000732422,0.999268,0.0985563,0.0265837,0.0241101
23902,0.000976562,-0.000732422,0.999512,-0.0540316,-0.0649691,0.0241101
23912,0.000976562,-0.000244141,0.999756,0.00700355,-0.0649691,-0.0369251
23922,0.000976562,-0.000488281,0.999512,-0.023514,-0.00393391,-0.0369251
23932,0.000976562,-0.000488281,1,0.0985563,-0.156522,-0.0674427
23942,0.000976562,0,1.00024,-0.0845492,-0.00393391,0.0851452
23952,0.000732422,0,1.00049,0.00700355,0.0571012,0.0546277
23972,0.000732422,-0.000488281,1,-0.023514,-0.00393391,0.0241101
23982,0.000732422,-0.000244141,1,0.0985563,-0.0954866,-0.0369251
23992,0.000488281,-0.000244141,0.999023,-0.023514,0.0265837,0.0241101
24002,0.000488281,-0.000488281,0.999023,-0.023514,0.0265837,0.14618
24012,0.000488281,-0.000488281,0.998779,0.00700355,0.0876188,0.0241101
24022,0.000488281,-0.000732422,0.998535,-0.145584,-0.0344515,-0.189513
24032,0.000732422,-0.000732422,0.998535,0.129074,0.0265837,0.0241101
24062,0.000976562,-0.000976562,0.999512,-0.0540316,-0.126004,-0.158995
24072,0.000732422,-0.000976562,0.999756,-0.0540316,-0.00393391,-0.0674427
24082,0.000488281,-0.000976562,0.999756,-0.115067,-0.00393391,-0.0369251
24102,0.000488281,-0.000976562,0.999756,0.0985563,-0.0344515,0.14618
24142,0.000732422,-0.000976562,0.999023,0.0375211,-0.0649691,0.0546277
24152,0.000976562,-0.000732422,0.998779,0.220627,-0.0954866,-0.0369251
24162,0.0012207,-0.000732422,0.999268,-0.176102,-0.0649691,-0.128478
24172,0.0012207,-0.000732422,0.998779,0.0680387,0.0571012,-0.0979602
24212,0.000488281,-0.000732422,0.999512,-0.023514,0.0265837,0.0546277
24252,0.000488281,-0.000244141,0.998291,-0.023514,-0.0344515,-0.0674427
24302,0.000488281,-0.000244141,0.999268,0.0985563,-0.00393391,-0.0064075
24362,0,-0.000488281,0.998535,0.190109,-0.0954866,0.0241101
24492,0.000732422,-0.000244141,0.998535,-0.115067,-0.0649691,-0.0674427
24522,0.000976562,-0.000732422,0.999268,-0.0845492,-0.126004,-0.220031
24622,0.000488281,-0.000488281,1.00024,-0.0845492,0.0265837,-0.0674427
24672,0.000732422,-0.000488281,0.999756,0.0680387,-0.0344515,0.115663
24742,0,-0.000488281,0.998535,0.190109,-0.0344515,0.0241101
24752,0,-0.000976562,0.998779,0.00700355,0.0265837,-0.0369251
24782,-0.000244141,-0.000244141,0.998779,-0.023514,0.0571012,0.115663
24812,0.000488281,-0.000244141,0.999023,-0.0845492,0.0265837,-0.0979602
24852,0.000732422,0,0.999268,-0.023514,-0.156522,-0.0369251
24912,0.000244141,-0.000976562,0.999756,-0.237137,0.0265837,-0.0369251
24942,0.000732422,-0.000976562,0.999023,-0.115067,-0.126004,0.0241101
24982,0.000732422,-0.000488281,0.999023,0.0375211,-0.248075,-0.128478
25012,0.000488281,-0.000976562,0.998535,0.00700355,0.0571012,-0.0369251
25062,-0.000244141,-0.0012207,0.999023,-0.023514,-0.0344515,-0.0674427
25102,0.000244141,-0.000488281,0.998047,0.0375211,-0.0344515,-0.0979602
25142,0.000244141,-0.0012207,0.998291,0.00700355,-0.156522,-0.0979602
25162,0.000488281,-0.0012207,0.998291,0.0680387,0.0571012,0.0546277
25172,0.000976562,-0.00146484,0.998291,-0.0845492,-0.0344515,0.0241101
25182,0.000732422,-0.00146484,0.998535,-0.0540316,-0.0649691,-0.0064075
25212,0.000976562,-0.000976562,0.998047,0.0985563,-0.0954866,-0.0369251
25222,0.000732422,-0.000976562,0.998291,0.00700355,0.0265837,-0.0064075
25232,0.000488281,-0.000976562,0.998047,0.0375211,-0.0649691,0.0241101
25242,0.000488281,-0.000732422,0.998291,0.00700355,-0.187039,0.0851452
25252,0.000488281,-0.0012207,0.998291,0.00700355,0.0571012,-0.0674427
25262,0.000732422,-0.0012207,0.998779,0.0375211,0.118136,-0.0674427
25292,0.000732422,-0.00170898,0.998779,-0.023514,-0.0954866,-0.128478
25302,0.000976562,-0.0012207,0.999023,0.129074,-0.0344515,0.207216
25312,0.000732422,-0.000976562,0.999512,-0.0845492,-0.0649691,-0.0674427
25322,0.000488281,-0.000732422,0.999023,0.0680387,-0.0344515,-0.0674427
25332,0,-0.000488281,0.999023,0.0375211,-0.126004,0.0851452
25342,0.000488281,-0.000976562,0.999023,-0.0540316,-0.0344515,-0.0064075
25352,0.000976562,-0.0012207,0.998779,-0.237137,-0.0344515,-0.0979602
25362,0.000488281,-0.0012207,0.999023,0.00700355,-0.0344515,-0.0979602
25372,0.000732422,-0.000976562,0.999268,0.0375211,0.148654,-0.0979602
25382,0.000976562,-0.000732422,0.999023,0.0680387,0.118136,0.0851452
25392,0.000732422,-0.000732422,0.999268,0.00700355,0.118136,-0.0674427
25412,0.000732422,-0.000732422,0.998779,0.0375211,-0.00393391,0.0546277
25422,0.000976562,-0.000488281,0.999268,0.129074,0.0265837,-0.128478
25452,0.000732422,-0.000244141,0.998779,-0.023514,0.118136,0.0241101
25462,0.000488281,-0.000732422,0.998535,0.00700355,0.0876188,-0.0369251
25482,0.000244141,-0.000488281,0.998779,0.0985563,-0.0649691,-0.0979602
25502,0.000976562,-0.000488281,0.999756,0.159591,-0.00393391,-0.0369251
25512,0.000976562,-0.000732422,0.999512,-0.115067,-0.0344515,-0.0064075
25532,0.000732422,-0.000732422,0.998535,-0.0540316,-0.187039,-0.0369251
25542,0.000976562,-0.000976562,0.998535,0.0375211,0.0571012,0.14618
25552,0.000976562,-0.00146484,0.999023,0.0680387,0.0571012,-0.0369251
25562,0.0012207,-0.0012207,0.999268,0.0680387,-0.0649691,0.0546277
25572,0.000732422,-0.000732422,0.998779,-0.023514,0.0265837,-0.0369251
25612,0.00146484,-0.000488281,0.999756,0.0375211,0.0876188,-0.0979602
25632,0.0012207,-0.000488281,1.00073,0.00700355,-0.0954866,0.0241101
25692,0.0012207,-0.000976562,0.999268,-0.0845492,-0.126004,-0.0064075
25722,0.000732422,-0.00146484,0.998535,0.0985563,0.0876188,0.0546277
25742,0.000488281,-0.000732422,0.999023,0.00700355,-0.0344515,-0.0064075
25802,0.000244141,-0.000732422,0.998047,-0.023514,-0.126004,0.0851452
25812,0.000244141,-0.000732422,0.998291,-0.20662,0.0876188,-0.0674427
25912,0.000732422,-0.000976562,0.998047,0.0680387,-0.0344515,-0.128478
25942,0.000244141,-0.000488281,0.998535,0.129074,0.0265837,-0.128478
26052,0,-0.000976562,0.998535,-0.023514,0.0571012,-0.0369251
26172,0.000976562,-0.000488281,0.998047,0.00700355,0.148654,-0.0369251
26212,0.000976562,-0.000732422,0.998779,-0.023514,0.0265837,0.0851452
26242,0.0012207,-0.000732422,0.998779,0.0680387,0.0571012,-0.0369251
26272,0.000976562,-0.000244141,0.999512,0.0985563,-0.0954866,-0.0369251
26312,0.000976562,-0.000732422,0.999756,0.0680387,-0.0649691,-0.0674427
26322,0.000976562,-0.000976562,1.00024,0.0375211,0.0571012,-0.0369251
26402,0.000732422,-0.000732422,0.999268,0.00700355,0.0876188,0.0241101
26422,0.000976562,-0.000976562,0.999023,-0.0845492,-0.0344515,-0.0064075
26442,0.000976562,-0.000732422,0.999023,-0.145584,0.0876188,0.115663
26492,0.000732422,-0.0012207,0.998535,0.0985563,0.0265837,-0.0979602
26502,0.000732422,-0.00146484,0.999023,-0.023514,0.0265837,-0.128478
26522,0.00146484,-0.00146484,0.998779,0.0680387,-0.00393391,0.0241101
26542,0.000976562,-0.0012207,0.998535,0.129074,-0.0649691,-0.0369251
26552,0.000732422,-0.000976562,0.998291,0.00700355,0.0265837,-0.0369251
26562,0.000976562,-0.0012207,0.999023,-0.023514,0.0876188,-0.0369251
26572,0.000732422,-0.000976562,0.999268,-0.0540316,0.118136,0.0241101
26582,0.000976562,-0.000976562,0.999512,-0.023514,-0.00393391,0.0241101
26602,0.000244141,-0.000732422,0.999023,0.0375211,0.0571012,-0.220031
26612,0.000488281,-0.000976562,0.999023,0.0375211,-0.217557,-0.0674427
26622,0.000732422,-0.000976562,0.999268,-0.0540316,-0.0954866,0.0241101
26632,0.000976562,-0.000976562,0.999268,-0.145584,-0.126004,-0.0979602
26642,0.000976562,-0.000732422,0.999512,0.00700355,-0.0649691,-0.0674427
26652,0.000732422,-0.000732422,0.999512,0.0680387,-0.0344515,0.0241101
26662,0.000488281,-0.000976562,0.998535,0.0680387,0.0571012,-0.0064075
26672,0.000488281,-0.000732422,0.998535,0.0680387,-0.00393391,-0.0369251
26682,0.000244141,-0.000488281,0.998291,0.0680387,0.148654,-0.0064075
26692,0.000488281,-0.000732422,0.998535,0.0680387,0.0571012,0.0241101
26702,0.000244141,-0.000732422,0.999023,0.129074,-0.0344515,-0.0674427
26712,0.000244141,-0.000732422,0.999756,0.129074,-0.00393391,-0.158995
26732,0,-0.000976562,0.999268,0.0375211,-0.0954866,-0.189513
26762,0.000244141,-0.000732422,0.999023,0.00700355,-0.126004,-0.128478
26772,0.000488281,-0.000976562,0.998535,-0.023514,-0.0649691,-0.128478
26782,0.000976562,-0.000732422,0.999268,0.0375211,-0.0649691,0.14618
26792,0.000976562,-0.000732422,0.999268,-0.023514,0.118136,-0.189513
26802,0.000976562,-0.000488281,0.999512,-0.023514,0.0571012,-0.158995
26812,0.000488281,-0.000244141,0.999268,0.00700355,-0.156522,0.14618
26822,0.000732422,-0.000732422,0.999023,0.0680387,-0.0344515,-0.0674427
26842,0.0012207,-0.000488281,0.999023,-0.0845492,0.0265837,-0.0369251
26872,0.000732422,-0.000488281,1,0.159591,-0.00393391,0.115663
26922,0.00146484,-0.000732422,0.999512,-0.023514,0.0265837,0.0241101
26972,0.0012207,-0.000488281,0.998535,0.129074,0.0265837,-0.0674427
26982,0.0012207,-0.000732422,0.998047,0.00700355,0.0876188,-0.0674427
27112,0.000732422,-0.000732422,0.999023,0.00700355,-0.00393391,0.0546277
27222,0.000488281,-0.000976562,0.999512,-0.0845492,-0.0649691,-0.0979602
27232,0.000732422,-0.0012207,0.999512,0.0680387,0.0571012,0.0241101
27242,0.000488281,-0.0012207,0.999512,-0.0540316,0.148654,-0.158995
27252,0.000488281,-0.000976562,0.999268,0.0375211,-0.156522,-0.0064075
27282,0.000244141,-0.0012207,0.998291,0.0375211,0.179172,0.0241101
27342,0.000488281,-0.00170898,0.998535,0.00700355,0.118136,-0.0674427
27412,0.000732422,-0.000976562,0.999756,-0.176102,-0.0954866,-0.0064075
27552,0.000244141,-0.000732422,0.999023,-0.023514,-0.00393391,-0.0979602
27582,0,-0.00146484,0.999268,0.00700355,0.0876188,0.0851452
27622,0.000732422,-0.000976562,0.998779,-0.023514,0.0876188,0.115663
27712,0.000732422,-0.000976562,0.998535,0.129074,-0.0344515,0.115663
27742,0.0012207,-0.000732422,0.998535,-0.115067,0.0265837,0.207216
27752,0.0012207,-0.000732422,0.998535,-0.115067,0.118136,-0.189513
27772,0.0012207,-0.000732422,0.998535,-0.0845492,-0.00393391,0.0851452
27782,0.000976562,-0.0012207,0.999023,0.0375211,-0.0954866,-0.0674427
27792,0.000732422,-0.000976562,0.998779,0.00700355,0.0265837,-0.128478
27812,0.000488281,-0.000976562,0.999023,0.0985563,0.0876188,-0.0369251
27832,0.000732422,-0.000976562,0.998779,0.0680387,-0.0344515,-0.0674427
27842,0.000488281,-0.000732422,0.998779,-0.176102,-0.00393391,0.0241101
27852,0.000732422,-0.000732422,0.998779,-0.115067,0.118136,0.0851452
27862,0.000976562,-0.000976562,0.999268,-0.0540316,-0.00393391,-0.0979602
27872,0.000976562,-0.000732422,0.998779,-0.023514,-0.00393391,-0.128478
27902,0.000488281,-0.000488281,0.998779,-0.0845492,0.148654,-0.158995
27912,0.000488281,-0.000244141,0.998291,0.0680387,0.179172,-0.128478
27922,0.000488281,-0.000488281,0.998535,0.00700355,0.0265837,-0.0064075
27932,0.000244141,-0.000244141,0.999023,-0.145584,0.0571012,0.0241101
27942,0.000244141,-0.000488281,0.999756,0.00700355,0.0571012,0.0851452
27952,0.000244141,-0.000732422,0.999268,0.00700355,0.0876188,0.0241101
27962,0.000244141,-0.000976562,0.998535,0.159591,0.0571012,0.0851452
27972,0.000244141,-0.000976562,0.997803,0.159591,0.118136,-0.0064075
27992,0.000732422,-0.0012207,0.998291,-0.023514,-0.156522,-0.0064075
28002,0.0012207,-0.000976562,0.998535,0.00700355,-0.126004,-0.0064075
28012,0.000732422,-0.000732422,0.998779,-0.023514,0.118136,-0.0064075
28032,0.000488281,-0.000732422,0.998535,-0.0540316,0.118136,0.0241101
28052,0.000488281,-0.000976562,0.998047,0.0680387,0.0571012,0.0241101
28062,0.000244141,-0.000732422,0.998047,0.220627,-0.0344515,0.0241101
28072,0.000488281,-0.000732422,0.998291,-0.023514,0.118136,-0.0064075
28082,0.000488281,-0.000732422,0.998291,-0.023514,-0.156522,-0.0674427
28092,0.000488281,-0.000732422,0.998291,-0.0540316,-0.00393391,0.0851452
28102,0.000488281,-0.000732422,0.998047,0.00700355,-0.00393391,0.0546277
28112,0.000244141,-0.000488281,0.998047,0.0375211,-0.0344515,0.0241101
28122,0.000732422,-0.000732422,0.997559,-0.0540316,-0.0954866,-0.0064075
28132,0.000976562,-0.000488281,0.998291,-0.0540316,-0.0954866,-0.0369251
28142,0.000976562,-0.000976562,0.998291,0.0680387,0.118136,0.0241101
28152,0.000976562,-0.0012207,0.999023,-0.023514,-0.0649691,-0.0064075
28232,0.000488281,-0.0012207,0.999512,-0.145584,-0.0344515,-0.0064075
28262,0.000488281,-0.00170898,0.999512,0.0985563,0.0265837,-0.0369251
28382,0.000488281,-0.000976562,0.996582,0.0985563,-0.0344515,0.0851452
28482,0.000244141,-0.000732422,0.997803,-0.0540316,0.0265837,0.0241101
28542,0.000488281,-0.000976562,0.997803,-0.115067,-0.0344515,0.0851452
28572,0.000244141,-0.000732422,0.998779,-0.0540316,-0.0954866,-0.128478
28612,0.000488281,-0.000488281,0.999512,-0.023514,-0.0344515,0.0546277
28802,0.000244141,-0.000488281,0.999512,0.0680387,-0.0649691,0.0241101
28852,0.000488281,-0.000244141,0.999268,0.00700355,-0.00393391,-0.189513
28882,0.000488281,-0.000488281,0.998535,-0.0540316,-0.0344515,0.0241101
28922,0.000976562,-0.000976562,0.999268,-0.0540316,0.0571012,-0.0369251
28952,0.000488281,-0.00146484,0.998291,0.220627,0.0265837,-0.128478
28982,-0.000244141,-0.000732422,0.999512,0.00700355,-0.00393391,-0.0674427
29012,0,-0.0012207,0.999023,-0.0540316,-0.0344515,-0.0674427
29062,0.000244141,-0.0012207,0.997803,0.159591,-0.0649691,-0.0979602
29072,0.000732422,-0.0012207,0.998047,-0.145584,-0.0344515,0.0546277
29082,0.000488281,-0.000488281,0.998291,0.00700355,-0.0344515,-0.0064075
29112,0.000488281,-0.000244141,0.998779,-0.0540316,-0.156522,0.115663
29142,0.000244141,-0.000732422,0.998535,0.0375211,-0.0649691,-0.0674427
29172,0.000244141,-0.000732422,0.998291,-0.0540316,0.118136,-0.0369251
29182,0.000488281,-0.000732422,0.998291,-0.023514,-0.0344515,0.0546277
29212,0.000244141,-0.000244141,0.999268,0.00700355,-0.217557,-0.0674427
29222,0.000488281,-0.000488281,0.999268,-0.0540316,-0.156522,-0.0369251
29232,0.000244141,-0.000488281,0.999023,0.00700355,-0.0344515,-0.0064075
29242,0.000488281,-0.000244141,0.998779,-0.115067,0.0265837,-0.0064075
29252,0.000244141,-0.000244141,0.998779,-0.023514,0.0571012,-0.0064075
29262,0.000488281,-0.000244141,0.998535,0.0680387,-0.0954866,-0.0064075
29272,0.000488281,-0.000244141,0.998047,0.0375211,-0.00393391,0.0241101
29282,0.000488281,0,0.997803,0.220627,-0.187039,0.0546277
29292,0.000732422,-0.000244141,0.998535,0.0680387,-0.187039,0.0241101
29302,0.000488281,-0.000732422,0.999023,-0.0540316,-0.0344515,-0.0979602
29312,0.000244141,-0.000976562,0.999023,-0.0845492,0.0265837,-0.0979602
29322,0.000244141,-0.000976562,0.998535,-0.023514,0.209689,-0.0064075
29332,0.000244141,-0.000732422,0.998779,-0.023514,0.118136,-0.0064075
29342,-0.000488281,-0.000976562,0.999023,0.00700355,-0.00393391,-0.0064075
29352,-0.000244141,-0.000732422,0.998535,-0.0540316,-0.156522,0.0546277
29362,0,-0.000488281,0.998047,-0.023514,0.0571012,-0.0369251
29382,0.000732422,-0.000732422,0.998047,0.159591,0.118136,0.0241101
29392,0.000244141,-0.000488281,0.998047,0.0985563,0.0265837,0.14618
29432,0.000488281,-0.000488281,0.997314,-0.0540316,0.0265837,-0.0369251
29452,0.000488281,-0.000732422,0.997559,-0.023514,-0.0649691,0.0241101
29462,0.000732422,-0.000976562,0.997803,-0.0845492,-0.0649691,-0.0979602
29472,0.000732422,-0.000488281,0.998047,0.0375211,0.0876188,-0.0064075
29482,0.000976562,-0.000732422,0.998291,0.0375211,-0.0344515,-0.0674427
29532,0.0012207,-0.000976562,0.999023,-0.0540316,-0.00393391,-0.0369251
29542,0.000732422,-0.000976562,0.998291,-0.115067,-0.126004,-0.0369251
29592,0.000732422,-0.000976562,0.998047,0.129074,-0.00393391,-0.0979602
29672,0.000732422,-0.000732422,0.998047,0.220627,-0.0649691,-0.220031
29712,0.000488281,-0.000244141,0.999023,0.0985563,0.148654,-0.0674427
29742,0.000732422,0,0.999756,-0.023514,-0.00393391,0.0241101
29802,0,-0.000244141,0.998535,0.129074,-0.0344515,-0.158995
29822,0.000244141,0,0.999023,-0.0540316,-0.0649691,0.0241101
29862,0.000732422,-0.000732422,0.998291,0.0680387,-0.00393391,0.0546277
29982,0.000488281,-0.000488281,0.999512,-0.023514,-0.00393391,0.0241101
30022,0.000244141,-0.000732422,0.999512,0.00700355,0.0265837,0.0546277
30082,0.000732422,-0.000488281,0.998047,-0.0845492,-0.156522,0.0241101
30102,0.000732422,-0.000488281,0.998047,0.00700355,0.179172,0.14618
30182,0,0,0.998535,0.129074,0.0265837,-0.0979602
30212,0.000488281,-0.000244141,0.998047,0.0680387,0.0265837,0.0241101
30252,0.000976562,-0.0012207,0.999023,0.00700355,-0.0344515,-0.0064075
30282,0.000488281,-0.000732422,1,0.00700355,-0.126004,-0.0064075
30322,0.000732422,-0.000732422,0.997559,0.220627,0.0571012,-0.0369251
30352,0.000976562,-0.000488281,0.998047,-0.0540316,-0.187039,0.0546277
30362,0.0012207,-0.000488281,0.998047,-0.023514,-0.00393391,-0.0674427
30372,0.0012207,-0.000732422,0.997559,-0.115067,0.0265837,-0.0064075
30382,0.0012207,-0.000488281,0.997803,-0.0540316,-0.0649691,-0.158995
30392,0.0012207,-0.000732422,0.998047,0.190109,0.0265837,0.0546277
30422,0.000244141,-0.000976562,0.999023,-0.0540316,-0.00393391,-0.158995
30462,0.000244141,-0.000244141,0.998047,0.0985563,0.118136,-0.158995
30472,0.000732422,-0.000488281,0.998291,0.0375211,-0.00393391,-0.0674427
30482,0.000488281,-0.000488281,0.999023,0.0375211,-0.0954866,-0.0674427
30502,0.000244141,-0.000488281,0.998535,0.129074,-0.126004,-0.0979602
30512,0.000244141,-0.000732422,0.998779,0.0985563,-0.126004,-0.0979602
30532,0,0,0.998291,-0.115067,-0.187039,0.0241101
30542,0.000244141,-0.000244141,0.998535,-0.023514,0.0571012,0.0241101
30552,0.000244141,-0.000244141,0.998535,0.00700355,-0.0649691,-0.0064075
30562,0.000488281,-0.000488281,0.999023,0.0680387,-0.00393391,-0.0369251
30572,0.000244141,-0.000732422,0.999268,0.0375211,0.118136,0.0851452
30582,0,-0.000488281,0.999512,0.129074,-0.156522,0.115663
30592,-0.000244141,-0.000488281,1,-0.023514,-0.0954866,0.14618
30602,0,-0.000488281,1.00049,-0.0540316,0.0876188,-0.0064075
30612,0.000488281,-0.000488281,1.00049,0.0985563,0.0876188,0.0241101
30632,0.000732422,-0.000244141,1.00024,0.00700355,0.0571012,0.0851452
30642,0.000732422,0,0.999512,-0.0845492,-0.0954866,-0.0369251
30652,0.000976562,-0.000244141,0.999268,0.190109,-0.00393391,0.115663
30672,0.000976562,-0.000732422,0.998291,-0.023514,-0.0344515,-0.0674427
30682,0.000732422,-0.000732422,0.998291,-0.023514,0.0876188,0.0546277
30702,0.000488281,-0.000732422,0.998047,0.190109,0.0876188,0.0851452
30712,0.000488281,-0.000488281,0.997803,0.0375211,-0.0954866,-0.0979602
30722,0.000488281,-0.000732422,0.998535,-0.0845492,-0.0649691,-0.0674427
30752,0.000732422,-0.000488281,0.999268,0.159591,-0.187039,-0.189513
30762,0.000488281,-0.000976562,0.999512,0.00700355,-0.0649691,-0.0369251
30772,0.000244141,-0.000976562,1.00049,-0.115067,0.0571012,-0.0979602
30782,0.000488281,-0.000976562,1.00024,-0.0540316,0.0265837,-0.128478
30822,-0.000244141,-0.000244141,0.999023,0.00700355,-0.00393391,0.0241101
30862,0.000732422,-0.000976562,0.999268,-0.0845492,0.0265837,-0.0064075
30882,0.000976562,-0.000976562,0.998535,-0.023514,-0.0344515,-0.0369251
30952,0.000488281,-0.000244141,0.998779,0.0375211,0.148654,-0.0674427
31032,0.000732422,-0.000488281,0.999268,-0.145584,-0.0344515,-0.0674427
31202,0.000488281,-0.0012207,0.998779,-0.0540316,0.148654,0.0546277
31262,0,-0.000976562,0.997803,0.159591,-0.187039,-0.0369251
31272,0.000244141,-0.000732422,0.998047,-0.0845492,0.118136,-0.0674427
31382,0.000732422,-0.000488281,0.998779,0.0985563,0.0571012,-0.158995
31412,0,-0.000488281,0.999023,0.00700355,-0.0649691,0.0241101
31422,0.000488281,-0.000244141,0.998779,-0.176102,0.240207,-0.0674427
31482,0.000732422,-0.000488281,0.999268,-0.115067,-0.0649691,-0.0979602
31492,0.000488281,-0.000732422,0.998535,0.129074,-0.126004,0.0546277
31522,0.000488281,-0.0012207,0.999268,0.129074,-0.0649691,0.115663
31532,0.000976562,-0.000732422,0.999268,0.0375211,-0.00393391,-0.0064075
31542,0.000488281,-0.000976562,1,0.0375211,0.0571012,-0.0674427
31632,0.000732422,-0.000976562,0.998291,-0.115067,0.0571012,-0.0674427
31662,0.000488281,-0.000732422,0.998291,0.0375211,0.0876188,-0.128478
31712,0.000488281,-0.00146484,0.999023,0.0680387,0.0265837,-0.0674427
31752,0.000732422,-0.000244141,0.998291,0.0375211,-0.0649691,-0.0064075
31782,0.000976562,-0.000976562,0.997559,-0.0540316,-0.00393391,-0.0064075
31792,0.000732422,-0.000488281,0.998779,0.0985563,-0.126004,0.0546277
31802,0.000732422,-0.000244141,0.998779,-0.176102,-0.156522,-0.0674427
31822,0.000244141,0,0.999512,0.251144,-0.0344515,0.0851452
31832,0.000244141,-0.000244141,0.999512,0.00700355,0.0571012,0.0241101
31842,0.000244141,-0.000488281,0.999512,0.0680387,-0.0344515,-0.0674427
31852,0,-0.000488281,0.999023,0.00700355,-0.00393391,-0.0674427
31862,0.000244141,-0.000488281,0.998535,-0.145584,-0.0344515,0.0241101
31872,0.000488281,-0.000976562,0.999023,0.190109,0.0265837,-0.220031
31882,0,-0.0012207,0.999023,-0.023514,0.0876188,-0.0369251
31892,0,-0.000976562,0.998535,0.00700355,0.0876188,-0.0979602
31902,0.000244141,-0.000732422,0.998535,0.159591,-0.126004,-0.0674427
31922,0.000488281,-0.000976562,0.998047,0.0375211,-0.0344515,0.0241101
31932,0.000244141,-0.000976562,0.998047,0.0680387,0.0265837,-0.0369251
31942,0.000488281,-0.000976562,0.998535,0.00700355,-0.0649691,0.0546277
31952,0.000488281,-0.000732422,0.998047,0.0985563,-0.126004,-0.0674427
31962,0.000244141,-0.000732422,0.997803,-0.145584,-0.0344515,0.0241101
31972,0,-0.000732422,0.997559,-0.0540316,-0.0344515,0.0241101
31982,-0.000244141,-0.000732422,0.998047,0.129074,0.0265837,-0.0369251
31992,-0.000244141,-0.000488281,0.998047,0.0985563,-0.00393391,-0.0064075
32002,-0.000244141,-0.000488281,0.997803,-0.145584,-0.0954866,0.14618
32032,-0.000244141,-0.000488281,0.998535,0.0375211,-0.00393391,-0.128478
32042,0.000244141,-0.000488281,0.998779,0.00700355,0.148654,-0.0064075
32052,0.000244141,-0.000732422,0.999023,0.00700355,-0.00393391,-0.0064075
32062,0.000244141,-0.000488281,0.998779,0.0680387,-0.00393391,-0.0674427
32072,0.000488281,-0.000732422,0.999023,0.0985563,0.179172,-0.128478
32092,0.000488281,-0.000488281,0.998291,-0.176102,-0.0649691,-0.0064075
32102,0.000244141,-0.000244141,0.998291,-0.0540316,-0.0954866,-0.0064075
32112,0.000244141,-0.000488281,0.998291,0.220627,0.118136,0.0851452
32162,0.000488281,-0.000732422,0.999023,0.0680387,-0.0344515,-0.0979602
32192,0.000488281,-0.000976562,0.998047,-0.115067,-0.0344515,-0.0064075
32202,0.000244141,-0.0012207,0.997803,0.0375211,0.179172,-0.220031
32322,0.000732422,-0.000976562,0.999023,-0.0845492,0.0571012,0.0241101
32592,0.00170898,-0.0012207,0.998779,0.0375211,0.0571012,0.0546277
32662,0.000976562,-0.0012207,0.999268,0.0985563,-0.0954866,-0.0369251
32802,0.000732422,-0.000244141,0.998535,0.00700355,-0.00393391,0.0546277
32882,0.000488281,-0.000732422,0.999023,0.0375211,-0.00393391,-0.0979602
32912,0.000488281,-0.000488281,0.999512,0.00700355,-0.187039,-0.189513
32962,0.000488281,-0.000732422,0.999756,0.0680387,0.0876188,-0.0064075
33002,0.000488281,-0.000732422,0.998779,-0.0540316,-0.00393391,0.0546277
33032,0.000244141,0.000244141,0.997803,0.0375211,0.0265837,-0.0369251
33062,0.000244141,-0.000244141,0.998047,-0.023514,0.148654,-0.0369251
33102,0.000976562,0,0.999023,-0.145584,-0.0649691,-0.128478
33122,0.000488281,0,0.999023,-0.023514,-0.00393391,0.0851452
33132,0.000488281,-0.000244141,0.997803,-0.115067,0.0876188,0.14618
33142,0.000732422,-0.000244141,0.99707,0.159591,-0.0954866,0.14618
33152,0.000488281,-0.000488281,0.997314,0.00700355,0.0571012,-0.0674427
33162,0.000976562,-0.000732422,0.997559,0.0985563,0.0571012,-0.0674427
33172,0.000976562,-0.000732422,0.998047,0.00700355,0.0876188,0.0851452
33182,0.000976562,-0.000732422,0.997314,0.159591,-0.0344515,-0.158995
33192,0.000976562,-0.000244141,0.997314,-0.0540316,0.118136,0.0546277
33202,0.000732422,-0.000244141,0.997559,0.0680387,-0.0344515,0.14618
33212,0.000488281,-0.000244141,0.997803,0.00700355,-0.0649691,-0.0369251
33222,0,-0.000244141,0.997803,0.129074,-0.0344515,-0.0369251
33232,0.000244141,0,0.998047,0.00700355,0.118136,-0.0369251
33252,-0.000244141,-0.000244141,0.997803,0.129074,-0.00393391,-0.0979602
33262,-0.000488281,-0.000488281,0.998291,0.00700355,-0.126004,-0.0979602
33272,-0.000244141,-0.000244141,0.998047,-0.176102,-0.00393391,0.0241101
33282,0,-0.000488281,0.998779,-0.023514,-0.00393391,0.0241101
33302,0.000244141,-0.000732422,0.998779,0.0375211,-0.0954866,-0.0674427
33312,0.000244141,-0.000732422,0.998291,0.0375211,0.118136,0.0546277
33322,0.000244141,-0.000732422,0.998535,0.00700355,-0.0954866,-0.0979602
33332,0.000244141,-0.0012207,0.998291,0.129074,0.0571012,-0.0369251
33342,0.000732422,-0.000976562,0.998779,-0.023514,-0.00393391,-0.0064075
33352,0.000976562,-0.0012207,0.997803,0.0375211,-0.0649691,-0.0064075
33362,0.000488281,-0.0012207,0.998047,0.0375211,0.148654,-0.128478
33392,0.000976562,-0.0012207,0.999023,-0.023514,-0.0344515,0.115663
33432,0.000976562,-0.000488281,0.998779,0.00700355,0.0571012,-0.0064075
33442,0.000976562,-0.000976562,0.998535,0.159591,-0.0344515,-0.0369251
33452,0.00146484,-0.0012207,0.998535,-0.0845492,-0.0649691,-0.0674427
33462,0.0012207,-0.0012207,0.999023,0.0375211,-0.0649691,-0.128478
33472,0.000732422,-0.0012207,0.998779,0.0375211,-0.187039,0.0241101
33492,0.000976562,-0.000976562,0.998535,-0.0845492,-0.0954866,-0.0064075
33502,0.000488281,-0.000976562,0.998291,-0.023514,-0.0344515,0.14618
33562,0.000732422,-0.000976562,0.998535,-0.023514,-0.0649691,-0.220031
33582,0.000244141,-0.000976562,0.998535,0.0985563,-0.0649691,-0.0979602
33602,0.000732422,-0.000488281,0.998047,-0.023514,-0.0344515,-0.0064075
33662,0.000244141,-0.000488281,0.997803,-0.023514,-0.00393391,-0.0369251
33692,-0.000244141,-0.000732422,0.997803,-0.0540316,-0.0344515,-0.189513
33762,0,-0.000976562,0.999023,0.0680387,-0.0649691,-0.189513
33882,0.0012207,-0.000488281,0.998535,0.190109,-0.00393391,-0.0674427
34052,0.000732422,-0.000732422,0.998047,0.0375211,-0.187039,-0.128478
34072,0.000488281,-0.000732422,0.998535,0.0375211,-0.0344515,-0.158995
34092,0.000244141,-0.000976562,0.999023,0.129074,-0.248075,0.0241101
34102,0,-0.00146484,0.998779,0.0985563,0.0571012,0.0241101
34162,0.000244141,-0.000488281,0.998779,0.0680387,-0.126004,0.0546277
34192,0.0012207,-0.000732422,0.997559,-0.0845492,0.0265837,0.0241101
34222,0.000732422,-0.0012207,0.997803,0.0680387,0.0265837,-0.0064075
34252,0.000488281,-0.000732422,0.999512,0.00700355,-0.00393391,-0.128478
34302,0.000732422,-0.000488281,0.998535,0.0985563,-0.0649691,0.0241101
34332,0.000244141,-0.000732422,0.999512,-0.0845492,-0.0649691,-0.158995
34352,0.000488281,-0.000732422,0.999268,0.0985563,-0.0649691,0.0241101
34382,0.0012207,-0.000732422,0.998535,0.0375211,0.0571012,-0.158995
34392,0.0012207,-0.0012207,0.999268,0.00700355,-0.156522,-0.0064075
34412,0.000976562,-0.000976562,0.999268,-0.115067,-0.00393391,0.0241101
34422,0.000976562,-0.000976562,0.998291,-0.023514,0.0876188,0.0546277
34432,0.000488281,-0.000488281,0.998047,-0.237137,0.118136,-0.0064075
34452,0.000488281,-0.000732422,0.998535,0.00700355,0.0571012,-0.0369251
34462,0.000732422,-0.000488281,0.998535,-0.115067,0.0571012,-0.0979602
34472,0.000732422,-0.000488281,0.998535,-0.115067,0.0876188,-0.128478
34482,0.000732422,-0.000732422,0.998291,-0.023514,0.0265837,0.14618
34492,0.000732422,-0.000732422,0.998535,0.0375211,-0.0649691,-0.0674427
34502,0.000488281,-0.000244141,0.999023,-0.20662,-0.0649691,0.115663
34512,0.000244141,-0.000488281,0.999023,0.0680387,-0.0649691,-0.0369251
34522,0.000488281,-0.000244141,0.999268,0.00700355,-0.156522,-0.0674427
34532,0.000976562,0,0.998779,0.0680387,0.0876188,0.0241101
34542,0.000976562,-0.000488281,0.998779,-0.0540316,-0.0954866,0.0546277
34552,0.000976562,-0.000488281,0.998291,-0.023514,0.0265837,-0.0979602
34562,0.000732422,-0.000244141,0.998047,0.0375211,0.118136,-0.0674427
34572,0.000976562,-0.000244141,0.997559,0.0375211,0.0571012,-0.0064075
34582,0.000732422,-0.000488281,0.998047,0.129074,-0.0649691,-0.0979602
34592,0.000732422,-0.000488281,0.998047,0.0985563,-0.156522,0.0241101
34602,0.000976562,-0.000244141,0.997559,0.0375211,0.148654,-0.0064075
34612,0.000732422,-0.000244141,0.997803,-0.0845492,-0.187039,-0.0369251
34622,0.000976562,-0.000488281,0.997559,-0.0540316,0.0265837,-0.0369251
34642,0.000976562,-0.000732422,0.997314,-0.0845492,-0.0649691,0.0546277
34662,0.000976562,-0.000488281,0.997314,-0.0540316,-0.0344515,-0.0064075
34672,0.000976562,-0.000244141,0.997559,0.00700355,-0.0954866,-0.158995
34682,0.000732422,-0.000244141,0.998047,0.00700355,-0.0649691,0.0851452
34742,-0.000244141,-0.000488281,0.997559,-0.0540316,0.0265837,0.0241101
34812,0.000488281,-0.000976562,0.997559,0.129074,-0.156522,-0.0979602
34852,0.000976562,-0.000732422,0.998291,0.00700355,-0.00393391,-0.0064075
34902,0.000488281,-0.00170898,0.999023,-0.0845492,-0.0344515,-0.0369251
34972,0.000488281,-0.000976562,0.998291,0.0680387,-0.0344515,-0.0674427
35032,0.000976562,-0.000976562,0.998291,0.00700355,-0.0344515,-0.0674427
35052,0.000732422,-0.0012207,0.999268,0.0375211,-0.0649691,-0.189513
35112,0.000488281,-0.0012207,0.998047,-0.0540316,-0.156522,-0.0369251
35122,0.000732422,-0.000976562,0.999023,0.0375211,-0.0649691,0.0241101
35152,0,-0.0012207,0.998779,0.0985563,-0.00393391,-0.0674427
35222,0.000244141,-0.000976562,0.997803,0.00700355,-0.0344515,-0.158995
35272,0.000488281,-0.000976562,0.998535,-0.145584,-0.0649691,0.0241101
35312,0.000488281,-0.000488281,0.998291,-0.023514,-0.126004,-0.0674427
35322,0.000732422,-0.000732422,0.997803,-0.0540316,-0.00393391,-0.0369251
35362,0.000976562,-0.000732422,0.997803,-0.145584,-0.00393391,0.0851452
35392,0.000732422,-0.0012207,0.996826,-0.0540316,-0.0649691,0.0241101
35432,0.000976562,-0.000732422,0.998535,0.00700355,-0.0344515,-0.0674427
35472,0.0012207,-0.000976562,0.998291,-0.115067,-0.0344515,0.0241101
35502,0.000732422,-0.000732422,0.998779,0.129074,-0.0954866,0.0241101
35522,0,-0.000732422,0.998291,0.00700355,0.179172,-0.0064075
35552,0.000488281,-0.000732422,0.999268,0.0375211,0.0571012,0.0241101
35562,0,-0.000976562,0.998779,-0.0540316,-0.0344515,-0.0674427
35632,0.000976562,-0.000976562,0.998779,-0.115067,0.118136,0.0241101
35682,0.000732422,-0.000488281,0.998291,-0.023514,0.0265837,-0.0674427
35732,0.000488281,-0.0012207,0.998535,0.190109,-0.0344515,-0.0064075
35792,0.000732422,-0.000732422,0.999268,0.312179,-0.0344515,-0.0979602
35802,0.000488281,-0.000488281,0.998779,0.129074,-0.00393391,-0.0674427
35812,0.000488281,-0.000488281,0.997559,0.00700355,0.118136,0.0546277
35822,0.000244141,-0.000244141,0.998047,-0.0540316,-0.0649691,0.176698
35832,0.000244141,-0.000488281,0.997803,-0.0540316,-0.0649691,-0.158995
35842,0.000488281,-0.000244141,0.997803,0.0375211,0.0265837,-0.0064075
35852,0.000732422,-0.000732422,0.998291,0.190109,0.240207,-0.0369251
35862,0.000244141,-0.000488281,0.998291,-0.115067,0.118136,-0.0979602
35872,0.000244141,-0.000488281,0.997803,-0.023514,0.0571012,-0.0369251
35882,0.000244141,-0.000976562,0.998779,0.159591,-0.00393391,0.0241101
35892,0.000244141,-0.000732422,0.998047,-0.115067,-0.00393391,-0.128478
35902,0,-0.000732422,0.998291,-0.023514,-0.0344515,0.0241101
35912,-0.000488281,-0.000976562,0.998047,-0.0845492,-0.126004,-0.0674427
35922,-0.000244141,-0.000976562,0.998291,0.129074,-0.0649691,-0.0369251
35932,-0.000244141,-0.000732422,0.998535,-0.023514,0.0265837,-0.0674427
35942,0.000244141,-0.000732422,0.998047,0.00700355,0.148654,0.0546277
35952,0.000488281,-0.000488281,0.998291,0.00700355,-0.126004,-0.0064075
35962,0.000732422,-0.000732422,0.997559,0.0985563,-0.00393391,0.0546277
35982,0.000976562,-0.000732422,0.99707,0.00700355,-0.00393391,0.0241101
35992,0.000976562,-0.0012207,0.997314,-0.115067,0.0265837,0.0546277
36002,0.000976562,-0.000732422,0.998047,0.0985563,0.0265837,-0.0064075
36012,0.000732422,-0.000976562,0.998291,-0.0540316,-0.0649691,0.0851452
36022,0.000732422,-0.000732422,0.998291,0.0985563,0.0265837,0.0851452
36042,0.000732422,-0.0012207,0.998291,0.0985563,-0.0344515,-0.128478
36052,0.0012207,-0.000976562,0.997314,0.0680387,-0.00393391,-0.220031
36072,0.000976562,-0.0012207,0.999023,0.129074,0.0265837,-0.0369251
36092,0,-0.000732422,0.999268,0.220627,-0.00393391,-0.0369251
36102,0.000244141,-0.000488281,0.998779,0.00700355,-0.126004,-0.0674427
36142,-0.000244141,-0.000732422,0.998779,0.0680387,-0.156522,0.0241101
36182,0.000488281,-0.000488281,0.998535,0.159591,-0.126004,-0.0369251
36202,0.000732422,-0.0012207,0.999023,0.0680387,0.0265837,-0.0979602
36252,0.000488281,-0.00146484,0.999023,-0.176102,0.0265837,-0.0369251
36292,0.000732422,-0.000732422,0.998047,-0.115067,-0.0344515,-0.0674427
36342,0.000732422,-0.000732422,0.998535,0.190109,-0.0344515,0.0241101
36492,0.000732422,-0.000732422,0.999512,0.0680387,0.0265837,0.0851452
36592,0.000976562,-0.000732422,0.998535,0.00700355,0.0265837,0.0546277
36692,0.000244141,-0.000732422,0.998047,-0.0540316,-0.00393391,-0.128478
36712,0,-0.000488281,0.997559,0.00700355,-0.0954866,-0.128478
36752,0.000244141,-0.000732422,0.998047,0.0375211,-0.126004,0.14618
36772,0.000244141,-0.000732422,0.998047,0.00700355,-0.0649691,-0.0064075
36792,0.000732422,-0.000732422,0.998291,0.0375211,-0.00393391,0.0241101
36822,0.000976562,-0.000488281,0.998047,0.0985563,-0.0954866,0.0851452
36842,0.000732422,-0.000732422,0.997803,-0.115067,-0.0649691,-0.189513
36902,0.000488281,-0.000732422,0.998291,-0.0540316,-0.0649691,-0.0064075
36922,0.000976562,-0.000488281,0.998535,-0.0540316,0.179172,0.0546277
36952,0.000488281,-0.000488281,0.997803,0.0680387,0.0876188,-0.0064075
36972,0,-0.000732422,0.998291,-0.0540316,0.0876188,-0.0674427
36982,0,-0.000976562,0.999023,-0.0540316,-0.0344515,-0.158995
37012,0.000244141,-0.0012207,0.999268,0.0375211,0.118136,-0.128478
37032,0.000732422,-0.0012207,0.999023,-0.20662,-0.0344515,-0.0979602
37062,0.00146484,-0.000732422,0.999512,0.00700355,0.0571012,-0.0979602
37082,0.000732422,-0.000976562,0.999023,0.0680387,-0.0649691,-0.0674427
37102,0.000732422,-0.000732422,0.998779,-0.023514,-0.0344515,-0.0369251
37132,0.000488281,-0.000488281,0.998779,0.159591,-0.00393391,-0.0979602
37142,0.000488281,-0.000244141,0.998535,-0.023514,0.118136,-0.0064075
37152,0.000732422,-0.000244141,0.999023,-0.0845492,0.118136,-0.0674427
37162,0.000732422,-0.000488281,0.998779,0.0375211,0.118136,0.0546277
37172,0.000976562,-0.000244141,0.998535,0.0985563,-0.0954866,-0.0979602
37182,0.000976562,-0.000244141,0.998535,0.0680387,-0.0649691,-0.0674427
37202,0.000976562,-0.000244141,0.998047,-0.0845492,-0.156522,-0.0369251
37212,0.0012207,-0.000244141,0.997803,0.159591,0.0876188,0.0546277
37222,0.0012207,-0.000488281,0.998291,0.0985563,0.0265837,0.0546277
37242,0.000732422,-0.000244141,0.998779,-0.023514,-0.0954866,0.14618
37252,0.000244141,0,0.998291,0.00700355,-0.0649691,0.0851452
37262,0.000732422,-0.000244141,0.998779,0.0985563,-0.0344515,-0.128478
37292,0.000732422,-0.000488281,0.998291,0.0985563,-0.0649691,-0.0674427
37312,0.000244141,-0.000976562,0.998535,0.0985563,0.0265837,-0.0674427
37322,0.000976562,-0.000488281,0.998047,0.0680387,-0.00393391,-0.0064075
37332,0.000488281,-0.000244141,0.998535,0.129074,0.0571012,0.0546277
37342,0,0,0.998047,-0.176102,-0.156522,-0.0674427
37352,0.000244141,0.000244141,0.998291,0.0375211,0.0265837,-0.0369251
37362,0.000488281,0,0.998047,0.0375211,-0.00393391,-0.0064075
37372,0.000732422,-0.000244141,0.997559,0.0375211,0.0571012,-0.0979602
37402,0.000976562,-0.0012207,0.998535,0.0375211,0.118136,-0.0369251
37442,0.000732422,-0.000976562,0.997803,0.0375211,-0.187039,-0.220031
37482,0.000488281,-0.000976562,0.997803,0.0985563,0.0571012,0.115663
37522,0.000244141,-0.000488281,0.998291,0.220627,-0.00393391,-0.128478
37552,0.000976562,-0.000488281,0.998291,-0.0540316,-0.00393391,0.0851452
37602,0.000488281,-0.000976562,0.998047,0.00700355,-0.0649691,-0.0369251
37762,0,-0.000488281,0.997803,0.0680387,0.118136,-0.0369251
37832,0.000488281,-0.000244141,0.998535,-0.0845492,0.0265837,-0.0064075
37852,0.000488281,0,0.998291,0.00700355,-0.0344515,-0.189513
37892,0.000244141,-0.0012207,0.999023,0.159591,-0.0649691,-0.0369251
37932,0.000244141,-0.000976562,0.998779,0.00700355,-0.0649691,-0.0064075
37962,0.000244141,-0.0012207,0.998535,-0.145584,-0.00393391,-0.128478
38052,0.000244141,-0.000976562,0.998779,-0.115067,-0.126004,-0.0369251
38072,0.000244141,-0.000732422,0.999023,0.129074,-0.0344515,0.0851452
38092,0.000732422,-0.000976562,0.998291,-0.0540316,-0.00393391,-0.0064075
38112,0.000488281,-0.0012207,0.998291,0.0375211,-0.0649691,0.115663
38132,0.000244141,-0.000976562,0.998291,0.00700355,0.0876188,-0.0064075
38202,0.000732422,-0.000732422,0.998047,0.00700355,-0.217557,0.0241101
38242,0.000488281,-0.000488281,0.998779,-0.0845492,-0.00393391,-0.128478
38282,0.000488281,-0.000976562,0.997803,0.159591,-0.0344515,0.14618
38352,0.000488281,-0.000488281,0.99707,0.00700355,-0.00393391,-0.0979602
38392,0.000488281,-0.000488281,0.99707,0.0375211,0.0571012,-0.0369251
38452,0,0,0.998047,0.0375211,0.118136,0.0851452
38462,0.000244141,-0.000244141,0.998535,0.0375211,-0.126004,0.0241101
38472,0.000488281,-0.000732422,0.998047,0.0375211,-0.0344515,-0.0369251
38482,0.000244141,-0.000976562,0.998535,0.00700355,-0.00393391,-0.128478
38492,0.000488281,-0.000732422,0.998535,0.0680387,0.0571012,0.0241101
38502,0.000244141,-0.000976562,0.998779,0.129074,-0.126004,-0.0064075
38512,0.000244141,-0.0012207,0.998779,0.0985563,-0.126004,-0.0064075
38522,0.000244141,-0.0012207,0.998047,0.129074,0.0571012,0.207216
38532,0,-0.000976562,0.997803,0.0375211,0.148654,0.0241101
38552,0,-0.00146484,0.998535,0.00700355,-0.00393391,0.0546277
38562,0.000488281,-0.0012207,0.998535,-0.115067,-0.00393391,-0.0979602
38572,0.000244141,-0.000976562,0.997803,-0.0540316,0.0265837,0.0241101
38582,0.000244141,-0.000732422,0.998047,0.220627,0.0265837,0.115663
38592,0.000244141,-0.000732422,0.997803,0.00700355,-0.0954866,0.0546277
38602,0,-0.000732422,0.998291,0.129074,-0.0344515,-0.0064075
38612,0,-0.000732422,0.997803,0.0375211,-0.0954866,-0.158995
38622,0,-0.000732422,0.998047,-0.0845492,-0.0649691,0.0546277
38632,0.000244141,-0.000488281,0.998047,-0.0845492,-0.126004,-0.0064075
38642,0.000244141,-0.000488281,0.998291,-0.176102,-0.00393391,-0.0674427
38672,0,-0.000488281,0.998047,0.129074,0.0876188,-0.0674427
38682,0,-0.000488281,0.998291,0.00700355,-0.0344515,-0.0064075
38692,0.000488281,-0.000732422,0.998779,-0.023514,0.0265837,0.0241101
38702,0.000732422,-0.000488281,0.998779,-0.115067,0.0876188,-0.0064075
38712,0.000488281,-0.000732422,0.999023,0.159591,-0.278592,-0.128478
38722,0.000244141,-0.000488281,0.999512,-0.176102,0.0876188,0.115663
38732,0.000488281,-0.000244141,0.998779,0.00700355,-0.126004,-0.158995
38742,0.000488281,0,0.998779,-0.023514,-0.126004,-0.0979602
38782,0.000244141,-0.000732422,0.998779,0.00700355,-0.00393391,-0.0979602
38842,0.000488281,-0.0012207,0.997803,0.0375211,0.118136,0.0546277
38872,0.000244141,-0.000732422,0.997559,-0.0540316,0.0265837,-0.189513
38902,0,-0.000976562,0.998291,0.00700355,-0.00393391,0.0851452
38972,-0.000244141,-0.000488281,0.998535,-0.267655,-0.0344515,-0.0369251
39112,0.000488281,-0.000244141,0.996826,0.190109,0.0265837,-0.0674427
39262,0.000732422,-0.000244141,0.996582,0.00700355,-0.217557,-0.0979602
39312,0,-0.000488281,0.998779,0.159591,0.0571012,0.115663
39332,0,-0.000732422,0.999023,0.159591,-0.0649691,-0.0064075
39352,0.000244141,-0.000976562,0.999023,-0.0845492,-0.0649691,-0.0369251
39382,0,-0.0012207,0.998047,-0.115067,-0.00393391,-0.0064075
39422,0.000244141,-0.000976562,0.998535,0.0680387,-0.187039,0.0546277
39442,-0.000244141,-0.0012207,0.997559,0.0375211,-0.0954866,-0.0369251
39502,0.000488281,-0.000732422,0.998291,0.0985563,-0.00393391,-0.0369251
39532,0.000976562,-0.000732422,0.998047,0.00700355,0.148654,-0.0369251
39562,0.00146484,-0.000732422,0.998291,-0.0540316,0.0876188,-0.0369251
39572,0.00146484,-0.000732422,0.998535,-0.115067,-0.0649691,-0.158995
39642,0.000732422,-0.000732422,0.998047,-0.0845492,-0.0344515,-0.0674427
39682,0.000976562,-0.000488281,0.999268,0.0375211,-0.0649691,0.0546277
39702,0.000488281,-0.000488281,0.999756,0.0985563,-0.00393391,-0.0979602
39722,0.000488281,-0.000488281,1,0.0680387,-0.0954866,0.0241101
39732,0.000244141,-0.000244141,0.999756,-0.023514,-0.0954866,0.176698
39742,0,-0.000732422,0.999023,0.0375211,-0.00393391,0.0241101
39782,0.000244141,-0.0012207,0.998779,0.0375211,0.0265837,0.207216
39792,0,-0.0012207,0.998047,-0.0540316,-0.0649691,-0.158995
39802,0.000244141,-0.0012207,0.998291,-0.20662,0.0265837,0.14618
39812,0.000244141,-0.000976562,0.998291,0.0680387,-0.00393391,-0.0369251
39822,0.000488281,-0.0012207,0.997803,0.0680387,-0.0344515,-0.0369251
39842,0.000976562,-0.000488281,0.998779,-0.023514,0.0876188,-0.0369251
39852,0.000732422,-0.000732422,0.998535,0.00700355,0.0265837,-0.0674427
39862,0.000976562,-0.000732422,0.998535,-0.0845492,-0.187039,-0.0674427
39872,0.000732422,-0.000976562,0.998535,0.129074,-0.0649691,-0.0064075
39892,0.000732422,-0.000488281,0.998291,-0.023514,-0.00393391,-0.0064075
39902,0.000732422,-0.000732422,0.998291,-0.115067,0.118136,-0.0674427
39912,0.000976562,-0.000244141,0.997803,0.0680387,-0.00393391,-0.0064075
39922,0.000976562,-0.000244141,0.998291,-0.023514,0.179172,0.0851452
39932,0.000244141,-0.000488281,0.998291,0.0680387,0.0876188,-0.158995
40002,0.000976562,-0.0012207,0.997314,0.0680387,-0.0344515,-0.0064075
40062,0,-0.00146484,0.998535,0.00700355,-0.0649691,-0.0979602
40102,0.000244141,-0.0012207,0.998047,-0.023514,-0.126004,-0.0064075
40112,0.000488281,-0.0012207,0.998535,-0.023514,0.0876188,-0.0369251
40222,0.000244141,-0.000976562,0.998047,-0.115067,-0.126004,-0.0674427
40232,0.000488281,-0.000732422,0.998047,0.00700355,0.0876188,0.0241101
40372,0,-0.000488281,0.998535,0.0985563,-0.00393391,-0.0674427
40412,0.000488281,-0.000732422,0.998535,0.0680387,0.0571012,-0.0674427
40422,0.000244141,-0.000732422,0.997559,0.00700355,-0.0649691,-0.0369251
40432,0.000244141,-0.000732422,0.998047,0.00700355,0.0876188,0.0241101
40462,0,-0.0012207,0.997559,0.00700355,-0.156522,-0.0674427
40482,0.000732422,-0.000976562,0.998047,0.00700355,-0.0954866,-0.158995
40512,0.000244141,-0.00146484,0.997559,0.129074,0.0876188,0.176698
40532,0,-0.00146484,0.997559,0.0375211,0.0876188,-0.128478
40622,0,-0.000732422,0.997559,0.00700355,-0.0649691,-0.158995
40682,0.000488281,-0.000488281,0.997803,0.00700355,-0.00393391,-0.0369251
40702,0.000976562,-0.000732422,0.997559,-0.0540316,-0.00393391,0.0546277
40712,0.000488281,-0.000732422,0.997559,0.0375211,0.118136,-0.128478
40732,0.000488281,-0.000488281,0.997803,-0.023514,-0.00393391,-0.158995
40742,0.000488281,-0.000732422,0.998047,0.0375211,0.0876188,-0.128478
40772,0.000488281,-0.000976562,0.99707,0.00700355,0.0876188,-0.220031
40782,0,-0.0012207,0.99707,-0.237137,-0.0344515,-0.0674427
40802,0.000488281,-0.000976562,0.997803,-0.023514,-0.0954866,-0.0064075
40812,0.000488281,-0.000976562,0.998291,-0.0540316,0.0571012,-0.0674427
40822,0.000488281,-0.0012207,0.997803,0.129074,0.0876188,-0.0674427
40842,0,-0.00146484,0.998047,0.0680387,-0.126004,-0.0369251
40862,0.000244141,-0.00146484,0.997803,0.0680387,-0.00393391,0.0546277
40892,0.000244141,-0.00146484,0.997559,-0.115067,0.0876188,-0.0369251
40902,0,-0.00146484,0.997803,0.220627,0.0571012,-0.0979602
40912,0.000244141,-0.0012207,0.997314,0.0985563,-0.0649691,0.0546277
40942,0.000244141,-0.000244141,0.997314,-0.0540316,-0.248075,-0.128478
40952,-0.000244141,-0.000488281,0.997559,0.00700355,0.118136,-0.0979602
40962,0,0,0.997803,0.0375211,-0.156522,-0.0064075
40972,0,-0.000244141,0.998047,0.129074,-0.0954866,-0.0064075
40992,0,-0.000732422,0.997559,-0.023514,-0.126004,-0.0979602
41002,0.000488281,-0.000732422,0.997314,0.0375211,-0.00393391,-0.128478
41032,0.000244141,-0.000976562,0.998291,0.129074,-0.00393391,-0.0064075
41042,0,-0.000732422,0.998291,0.0680387,-0.248075,0.0546277
41062,0.000732422,-0.000488281,0.997803,0.0985563,-0.0954866,-0.0369251
41082,0.000244141,-0.000976562,0.997314,-0.0540316,-0.0344515,0.115663
41092,0.000244141,-0.000732422,0.996826,0.0375211,-0.00393391,-0.0064075
41102,0.000244141,-0.000732422,0.997559,0.0985563,-0.156522,0.0851452
41112,0.000244141,-0.000732422,0.997559,0.129074,-0.156522,-0.0674427
41122,0.000244141,-0.000732422,0.997314,0.159591,0.0265837,-0.128478
41132,0.000244141,-0.000732422,0.997803,-0.023514,-0.00393391,-0.0064075
41152,0.000488281,-0.0012207,0.998047,0.129074,-0.0954866,0.0851452
41162,0.000732422,-0.0012207,0.998291,-0.023514,0.0571012,-0.0369251
41172,0.0012207,-0.000976562,0.998291,0.0985563,-0.0954866,-0.158995
41182,0.000976562,-0.000732422,0.998291,-0.0540316,-0.00393391,-0.0979602
41192,0.000976562,-0.000488281,0.998047,-0.176102,0.0265837,0.0546277
41202,0.000976562,-0.000488281,0.997803,-0.0845492,-0.156522,-0.0674427
41212,0.000976562,-0.000488281,0.997803,-0.0540316,-0.126004,0.0241101
41222,0.000488281,-0.000488281,0.998047,0.190109,0.0265837,-0.0369251
41232,0.000488281,-0.000488281,0.998047,-0.023514,0.0571012,-0.0979602
41272,0.000732422,-0.000732422,0.997314,0.0680387,-0.0954866,0.0241101
41282,0.000488281,-0.000488281,0.997559,0.312179,0.148654,-0.128478
41292,-0.000244141,-0.000488281,0.998291,-0.0540316,-0.00393391,-0.189513
41302,0.000244141,-0.000732422,0.997803,0.129074,-0.0649691,0.0241101
41332,0.000488281,-0.000732422,0.998047,-0.0540316,0.0265837,0.0546277
41372,0.000244141,-0.000976562,0.998535,0.0375211,0.179172,-0.128478
41472,0.000244141,-0.000244141,0.997803,0.0375211,-0.00393391,-0.0979602
41492,0.000488281,-0.000244141,0.998535,0.190109,-0.187039,-0.128478
41512,0.000488281,-0.000732422,0.997803,0.129074,-0.0649691,-0.0674427
41552,0.000732422,-0.000732422,0.998779,0.0375211,0.0265837,0.0241101
41582,0.000732422,-0.000732422,0.999023,-0.023514,-0.156522,-0.0369251
41612,0.000976562,-0.000732422,0.999023,0.0985563,-0.0344515,-0.0369251
41682,0.000244141,-0.000732422,0.998535,-0.0540316,-0.0649691,-0.128478
41722,0.000488281,-0.000976562,0.998047,0.0680387,-0.0954866,-0.0369251
41742,-0.000244141,-0.000976562,0.998291,0.0375211,-0.0344515,-0.0674427
41922,0.000488281,-0.0012207,0.997559,-0.0540316,-0.00393391,-0.0369251
41992,0,-0.000488281,0.997314,-0.0845492,0.0571012,0.0546277
42022,0.000244141,-0.000488281,0.997314,-0.115067,0.0571012,0.0241101
42042,0.000244141,-0.000488281,0.997559,0.00700355,-0.00393391,-0.0674427
42072,0.000732422,-0.000976562,0.997314,-0.115067,-0.00393391,-0.0979602
42092,0.000488281,-0.00146484,0.996582,-0.176102,0.209689,0.0241101
42122,-0.000244141,-0.000976562,0.997314,-0.0540316,-0.126004,-0.0369251
42142,0,-0.000732422,0.998291,0.129074,-0.126004,0.0851452
42202,0.000244141,-0.000976562,0.998047,0.0680387,0.0571012,-0.158995
42222,0.000244141,-0.000732422,0.998779,-0.0845492,0.0571012,0.0241101
42262,0.000488281,-0.000488281,0.997803,0.0375211,0.0265837,-0.128478
42302,0.000488281,-0.000976562,0.998047,-0.023514,-0.0954866,-0.0369251
42322,0.000488281,-0.000976562,0.999023,-0.115067,0.0876188,0.0241101
42332,0.000976562,-0.000976562,0.999023,0.0375211,-0.00393391,0.0851452
42342,0.000976562,-0.0012207,0.998535,0.0680387,0.118136,-0.0369251
42352,0.000732422,-0.000976562,0.998291,0.00700355,0.0265837,-0.0064075
42372,0.0012207,-0.0012207,0.998047,0.0375211,0.148654,0.0851452
42382,0.000976562,-0.000732422,0.997559,0.0680387,-0.0649691,0.0241101
42392,0.000976562,-0.000732422,0.997559,0.0985563,0.0265837,-0.0369251
42402,0.000976562,-0.000732422,0.997559,0.0985563,0.0571012,-0.128478
42412,0.000732422,-0.000732422,0.998291,0.129074,-0.00393391,-0.0064075
42432,0.000488281,-0.000732422,0.998779,-0.023514,-0.0344515,-0.0674427
42442,0.000976562,-0.000732422,0.999268,0.00700355,-0.156522,0.0241101
42452,0.000976562,-0.000488281,0.998779,0.0680387,-0.0954866,0.0241101
42462,0.000976562,0,0.998291,-0.023514,-0.00393391,-0.0979602
42472,0.000732422,0,0.998779,-0.176102,0.0265837,0.0241101
42482,0.000732422,-0.000244141,0.998047,-0.023514,0.0265837,0.0241101
42492,0.000488281,-0.000244141,0.998291,-0.023514,-0.126004,-0.0369251
42502,0.000488281,-0.000244141,0.998291,0.129074,-0.126004,-0.0674427
42512,0.000488281,-0.000244141,0.998535,-0.023514,-0.0649691,-0.0979602
42522,0.000488281,0,0.998535,0.159591,0.0571012,0.0546277
42532,0.000732422,-0.000488281,0.998779,-0.023514,-0.0344515,0.0241101
42542,0.000488281,-0.000244141,0.998291,-0.0540316,-0.156522,0.0851452
42552,0.000488281,-0.000488281,0.998291,0.0680387,-0.0344515,0.0241101
42562,0.000732422,-0.000488281,0.998291,0.0375211,-0.0344515,-0.0369251
42572,0.000732422,-0.000488281,0.998535,0.0375211,-0.00393391,0.0851452
42592,0.000488281,-0.000732422,0.998291,0.129074,-0.156522,-0.0674427
42622,0.000488281,-0.000732422,0.997314,0.0985563,-0.0954866,0.115663
42642,0.000244141,-0.000488281,0.997803,0.0680387,-0.0649691,0.0546277
42652,0.000244141,-0.000488281,0.998291,0.0375211,-0.0954866,-0.158995
42662,0.000488281,-0.000732422,0.99707,-0.176102,-0.126004,0.0546277
42682,0.000732422,-0.000976562,0.997559,0.0985563,0.0876188,-0.0369251
42702,0.000244141,-0.000976562,0.998047,0.0375211,0.0571012,-0.128478
42782,0.000732422,-0.000976562,0.997803,0.00700355,-0.0344515,-0.0674427
42852,0.000976562,-0.000976562,0.997314,0.129074,0.0571012,0.0241101
42982,0.000976562,-0.000732422,0.998291,0.0375211,-0.217557,0.0851452
43002,0.0012207,-0.000732422,0.997559,-0.0845492,-0.0954866,0.0241101
43062,0.000732422,-0.000976562,0.998291,-0.0540316,-0.0649691,-0.0979602
43072,0.000732422,-0.000488281,0.997559,0.0680387,0.118136,-0.128478
43222,0.000732422,-0.000732422,0.997803,0.0375211,-0.0344515,-0.0064075
43262,0.000244141,-0.000732422,0.997803,0.129074,-0.00393391,-0.220031
43312,0.000732422,-0.000976562,0.997559,0.0375211,-0.187039,0.0851452
43322,0.000488281,-0.0012207,0.997559,0.0375211,-0.0344515,-0.0064075
43332,0.000244141,-0.0012207,0.997314,0.0375211,-0.126004,-0.0369251
43352,0.000244141,-0.000976562,0.998291,-0.145584,0.0571012,-0.0979602
43362,0.000488281,-0.000732422,0.998535,-0.0845492,0.118136,-0.0979602
43372,0.000732422,-0.000732422,0.998047,0.0985563,-0.187039,-0.128478
43402,0.0012207,-0.0012207,0.997803,0.0680387,-0.00393391,0.0851452
43422,0.0012207,-0.00170898,0.998291,-0.023514,-0.00393391,-0.0979602
43432,0.000976562,-0.00170898,0.998047,-0.023514,0.179172,-0.0979602
43462,0.000732422,-0.00146484,0.997314,-0.023514,-0.0649691,0.0546277
43472,0.000732422,-0.00146484,0.997559,0.129074,-0.0954866,-0.0064075
43482,0.000488281,-0.0012207,0.997803,0.281662,-0.0954866,0.0241101
43522,0.000732422,-0.000976562,0.999268,0.0375211,-0.126004,-0.0369251
43532,0.000732422,-0.000976562,0.998779,-0.023514,-0.0954866,-0.0064075
43542,0.000976562,-0.000732422,0.998291,0.0985563,-0.0954866,0.0241101
43552,0.000976562,-0.000488281,0.998047,-0.023514,-0.0344515,-0.0979602
43562,0.000976562,-0.000244141,0.998047,0.0985563,-0.0954866,-0.0979602
43582,0.000488281,-0.000732422,0.998779,0.129074,-0.0344515,0.0241101
43592,0.000488281,-0.0012207,0.998291,0.0375211,0.0571012,-0.128478
43602,0.000488281,-0.00146484,0.998047,0.0680387,0.0265837,0.0241101
43612,0.000488281,-0.00146484,0.997803,0.0375211,-0.0649691,-0.128478
43622,0.000244141,-0.00170898,0.998047,-0.023514,0.0876188,-0.0674427
43652,0.000488281,-0.00170898,0.998291,0.0680387,-0.0344515,-0.0064075
43672,0.000732422,-0.000976562,0.997559,0.0375211,-0.0344515,-0.0064075
43682,0.000488281,-0.0012207,0.997803,0.159591,-0.0954866,-0.220031
43702,0.000488281,-0.000732422,0.997803,0.190109,-0.0344515,-0.0674427
43712,0.000488281,-0.000732422,0.997559,0.00700355,-0.126004,0.0241101
43722,0.000732422,-0.000976562,0.99707,0.0680387,-0.0954866,-0.0979602
43732,0.000488281,-0.000732422,0.996826,0.0985563,0.148654,-0.0369251
43742,0.000488281,-0.000976562,0.996826,0.0680387,-0.00393391,0.0546277
43762,0.000488281,-0.000488281,0.997314,0.129074,-0.0344515,-0.0979602
43772,0.000244141,-0.000244141,0.99707,-0.023514,0.0571012,-0.0674427
43792,0.000488281,-0.000488281,0.996826,0.159591,0.0571012,-0.0064075
43802,0.000732422,-0.000244141,0.99707,0.0985563,0.0265837,-0.0674427
43812,0.000976562,-0.000488281,0.997314,-0.0540316,-0.0344515,0.0546277
43822,0.000488281,-0.000488281,0.997803,0.0375211,0.148654,-0.0674427
43842,0.000732422,-0.000488281,0.998291,0.129074,0.0571012,-0.0979602
43852,0.000732422,-0.000244141,0.998291,0.0680387,0.0571012,-0.0064075
43862,0.000976562,-0.000488281,0.998291,-0.0845492,0.0571012,-0.189513
43872,0.000488281,-0.000732422,0.998535,0.0375211,-0.0954866,-0.220031
43892,0.000244141,-0.000732422,0.998291,-0.0540316,0.0876188,0.0851452
43902,0,-0.000732422,0.998291,-0.115067,-0.0649691,0.0241101
43912,0.000244141,-0.000732422,0.997559,-0.176102,-0.0649691,0.0851452
43922,0.000488281,-0.000976562,0.997803,0.00700355,-0.00393391,-0.0064075
43942,0.000488281,-0.000976562,0.997803,-0.0540316,-0.0649691,0.14618
43962,0.000732422,-0.000976562,0.998779,0.129074,-0.0344515,0.0241101
44002,0.000488281,-0.000732422,0.998047,-0.023514,0.0876188,0.14618
44012,0.000732422,-0.000732422,0.998535,0.129074,-0.00393391,0.0546277
44022,0.000488281,-0.000976562,0.998535,-0.115067,-0.126004,-0.0674427
44052,0.000732422,-0.000488281,0.998779,-0.115067,-0.0649691,-0.0979602
44092,0.000976562,-0.000732422,0.998291,-0.023514,-0.0954866,-0.0979602
44112,0.000488281,-0.000976562,0.998535,0.0680387,0.0265837,-0.128478
44152,0.000488281,-0.000732422,0.997559,0.00700355,-0.0649691,-0.0674427
44172,0.000244141,-0.00146484,0.998291,0.159591,0.0571012,0.0241101
44202,0.000244141,-0.000732422,0.998779,0.0985563,0.0571012,-0.0369251
44322,0,-0.000732422,0.998047,0.190109,-0.0649691,-0.0979602
44352,0.000488281,-0.000976562,0.998535,-0.115067,-0.156522,-0.0369251
44382,0.000976562,-0.000976562,0.997803,-0.115067,-0.0344515,-0.0979602
44452,0.000732422,-0.0012207,0.997803,-0.115067,0.118136,-0.0064075
44482,0.000244141,-0.000732422,0.998291,0.0375211,-0.00393391,-0.0064075
44552,0.000732422,-0.0012207,0.998047,-0.023514,-0.217557,0.0851452
44632,0.000976562,-0.000976562,0.99707,0.0375211,-0.0954866,0.0851452
44722,0.000976562,-0.0012207,0.997803,-0.115067,-0.0954866,0.0546277
44752,0.000732422,-0.000488281,0.998291,-0.0540316,-0.126004,0.0546277
44792,0.000976562,-0.000488281,0.996582,0.0680387,-0.126004,0.0546277
44832,0.000488281,-0.00146484,0.997803,-0.0540316,-0.00393391,0.0546277
44852,0.000488281,-0.00170898,0.997803,-0.023514,-0.0344515,-0.0674427
44872,0.000732422,-0.000732422,0.997559,0.0375211,0.0876188,0.0546277
44892,0.000488281,-0.000976562,0.997803,0.0375211,0.0571012,-0.0979602
44912,0.000732422,-0.000732422,0.998535,-0.0540316,0.0571012,-0.0064075
44982,0.0012207,-0.000488281,0.998047,-0.0845492,-0.0344515,-0.0064075
45012,0.000244141,-0.000976562,0.998047,-0.176102,0.0876188,-0.189513
45022,0.000488281,-0.000732422,0.998047,-0.237137,0.148654,-0.0064075
45032,0.000488281,-0.000732422,0.998779,-0.0845492,-0.0649691,-0.0369251
45042,0.000488281,-0.000732422,0.998535,0.159591,0.118136,0.115663
