t,accx,accy,accz,gyrox,gyroy,gyroz
44794,-0.000488281,-0.000488281,0.996826,0.11915,0.106812,0.0239015
44804,-0.000976562,-0.000488281,0.996826,0.027597,0.0762939,0.054419
44814,-0.000976562,-0.000732422,0.99707,0.149667,-0.0152588,-0.0676513
44824,-0.000732422,-0.000488281,0.997314,0.027597,0.0152588,-0.0371337
44834,-0.000732422,-0.000244141,0.997559,0.027597,-0.0457764,0.0239015
44844,-0.000732422,0,0.99707,-0.00292063,-0.0152588,-0.128686
44854,-0.000976562,0,0.997314,-0.124991,0.0762939,-0.00661612
44864,-0.000976562,-0.000244141,0.996826,-0.0639558,0.0457764,0.054419
44874,-0.000976562,0.000244141,0.996826,-0.0944734,0.106812,0.0239015
44884,-0.000976562,0.000244141,0.99707,-0.0639558,0.137329,-0.0981688
44894,-0.000488281,0,0.997559,0.027597,-0.0152588,-0.159204
44904,-0.000732422,0,0.99707,0.0886321,-0.0152588,-0.159204
44914,-0.000732422,0,0.99707,-0.0639558,-0.0152588,-0.0981688
44924,-0.000488281,0,0.99707,0.149667,-0.0457764,0.115454
44934,-0.000488281,0.000244141,0.99707,0.0886321,0.167847,0.0239015
44944,-0.000488281,0.000244141,0.997559,0.0886321,0.0457764,0.054419
44954,-0.000488281,0.000244141,0.997803,0.0886321,-0.0152588,0.115454
44964,-0.000732422,0.000488281,0.997803,-0.0944734,0.0457764,0.054419
44974,-0.000488281,0.000244141,0.997803,-0.0334382,0.0152588,-0.159204
44984,-0.000488281,-0.000244141,0.997559,0.027597,-0.0457764,0.115454
44994,-0.000244141,0,0.997559,-0.00292063,0.137329,0.0849366
45004,-0.000244141,0,0.997314,0.0886321,-0.0152588,0.145972
45014,-0.000244141,0,0.99707,-0.124991,-0.0457764,-0.0676513
45024,-0.000244141,0,0.996094,-0.0334382,0.0762939,-0.189722
45034,-0.000732422,-0.000732422,0.99585,0.11915,0.0762939,0.0239015
45044,-0.000732422,-0.000732422,0.996094,0.027597,-0.0457764,0.0849366
45054,-0.000488281,-0.000488281,0.996338,-0.0639558,-0.0152588,-0.0676513
45064,-0.000488281,-0.000488281,0.996338,0.027597,-0.0457764,0.0239015
45074,-0.000488281,-0.000244141,0.996094,0.0886321,0.137329,0.145972
45084,-0.000488281,-0.000488281,0.99585,-0.0639558,0.137329,0.0239015
45094,-0.000244141,-0.000244141,0.996338,0.0886321,0.0762939,-0.0371337
45104,-0.000488281,-0.000244141,0.996826,0.11915,-0.106812,-0.0371337
45114,-0.000732422,-0.000244141,0.997314,-0.00292063,0.106812,-0.00661612
45124,-0.000732422,0,0.996826,-0.0944734,-0.0152588,0.115454
45144,-0.000244141,0,0.99707,0.0581145,-0.0762939,0.054419
45154,-0.000732422,0,0.996582,-0.0334382,0.0762939,-0.0981688
45164,-0.000488281,0,0.997314,0.027597,0.0762939,0.0849366
45174,-0.000732422,-0.000244141,0.99707,-0.00292063,0.0762939,0.054419
45184,-0.000732422,-0.000244141,0.997314,0.11915,-0.0762939,-0.0371337
45194,-0.000732422,-0.000488281,0.996826,-0.0639558,-0.106812,-0.00661612
45204,-0.000976562,-0.000732422,0.996094,-0.0944734,-0.0152588,0.0239015
45214,-0.0012207,-0.000732422,0.996826,0.11915,0.0762939,-0.0676513
45224,-0.000732422,-0.000976562,0.996826,-0.0334382,-0.0457764,-0.0371337
45234,-0.000488281,-0.000732422,0.996582,-0.0334382,-0.0152588,0.054419
45244,-0.000488281,-0.000488281,0.996826,0.0581145,-0.0152588,0.0849366
45254,-0.000244141,-0.000488281,0.997314,0.027597,-0.0457764,0.0239015
45264,-0.000244141,-0.000244141,0.997803,-0.0334382,0.0457764,-0.0676513
45274,-0.000244141,-0.000488281,0.997803,0.027597,0.0152588,0.145972
45284,-0.000244141,-0.000488281,0.997314,-0.0334382,-0.106812,-0.159204
45294,-0.000244141,-0.000488281,0.99707,-0.0334382,0.0762939,-0.00661612
45304,-0.000488281,-0.000244141,0.997314,0.0581145,0.137329,0.115454
45314,-0.000488281,0,0.997314,0.11915,-0.0457764,-0.0371337
45324,-0.000732422,0,0.997314,0.0581145,0.0762939,0.115454
45334,-0.000488281,-0.000244141,0.997314,0.0581145,-0.0457764,-0.0676513
45344,-0.000732422,0,0.996826,0.0581145,-0.0152588,-0.0371337
45354,-0.000488281,-0.000488281,0.99707,-0.0334382,-0.0762939,-0.00661612
45364,-0.000488281,-0.000732422,0.997559,-0.0334382,-0.0762939,0.0849366
45374,-0.000488281,-0.000976562,0.997559,-0.0944734,-0.106812,0.115454
45384,-0.000244141,-0.000732422,0.997559,0.11915,0.167847,-0.0676513
45394,-0.000244141,-0.000488281,0.99707,-0.0334382,0.106812,-0.0676513
45404,-0.000488281,-0.000244141,0.996826,0.302255,-0.0152588,0.0239015
45414,-0.000732422,-0.000244141,0.99707,-0.0639558,0.0457764,0.0239015
45424,-0.000976562,-0.000488281,0.997559,0.027597,-0.0152588,-0.0981688
45434,-0.000732422,-0.000732422,0.997314,-0.00292063,0.0152588,0.145972
45444,-0.000732422,-0.000488281,0.997559,0.0886321,0.106812,0.054419
45454,-0.000732422,-0.000244141,0.99707,-0.186026,0.106812,-0.00661612
45464,-0.000976562,-0.000244141,0.997803,0.0886321,-0.106812,0.115454
45474,-0.000976562,-0.000488281,0.998047,-0.0639558,0.0762939,0.0239015
45484,-0.000976562,-0.000244141,0.997559,0.0886321,-0.0152588,0.29856
45494,-0.000732422,-0.000244141,0.998047,0.11915,0.137329,-0.00661612
45504,-0.000244141,-0.000244141,0.998535,0.180185,-0.0762939,-0.159204
45514,-0.000488281,0,0.997803,-0.00292063,0.0762939,-0.0676513
45524,-0.000244141,-0.000244141,0.998047,0.027597,-0.0152588,0.145972
45534,-0.000244141,-0.000244141,0.998047,0.027597,0.0152588,0.0849366
45544,-0.000244141,0,0.997803,-0.00292063,-0.0457764,0.0849366
45554,-0.000244141,0.000244141,0.997559,0.0886321,0.0762939,-0.0371337
45564,-0.000488281,-0.000244141,0.997314,-0.0334382,0.137329,-0.00661612
45574,-0.000732422,0,0.99707,0.0886321,0.228882,0.145972
45584,-0.000976562,-0.000244141,0.99707,0.11915,0.0762939,0.0239015
45594,-0.000732422,0,0.996826,0.0886321,0.0152588,-0.00661612
45604,-0.000732422,-0.000244141,0.996826,0.0886321,0.0457764,-0.0371337
45614,-0.000732422,-0.000244141,0.996826,-0.00292063,-0.0152588,0.115454
45624,-0.000244141,0,0.996582,-0.124991,-0.0457764,-0.00661612
45634,-0.000732422,-0.000488281,0.996826,0.0581145,0.0152588,0.0239015
45644,-0.000976562,-0.000488281,0.996826,0.027597,0.0152588,-0.128686
45654,-0.000976562,-0.000488281,0.996338,-0.0334382,0.0762939,-0.0676513
45664,-0.000976562,-0.000244141,0.996338,0.0581145,0.0457764,-0.0676513
45674,-0.000976562,-0.000488281,0.996094,-0.216544,-0.0457764,-0.189722
45684,-0.000732422,-0.000732422,0.99585,0.149667,-0.0762939,-0.0981688
45694,-0.000488281,-0.000976562,0.996582,-0.0334382,0.0457764,-0.00661612
45704,-0.000488281,-0.000976562,0.996582,-0.0639558,0.0457764,-0.0676513
45714,-0.000244141,-0.000732422,0.99585,0.027597,-0.0762939,0.0849366
45724,0,-0.000244141,0.996582,-0.0639558,0.0762939,0.0239015
45734,0,-0.000244141,0.99707,-0.0334382,0.198364,-0.128686
45744,-0.000488281,-0.000244141,0.997314,0.0886321,-0.0762939,-0.0676513
45754,-0.000488281,-0.000488281,0.996826,0.0581145,-0.137329,0.207007
45764,-0.000976562,-0.000488281,0.996094,-0.00292063,0.0457764,0.0239015
45774,-0.000732422,-0.000244141,0.996094,0.149667,-0.0152588,0.0239015
45784,-0.000488281,-0.000244141,0.996094,0.0886321,0.0457764,-0.0371337
45794,-0.000488281,-0.000244141,0.996338,-0.00292063,-0.106812,-0.0371337
45804,-0.000488281,0.000244141,0.996826,0.271738,0.0457764,0.0239015
45814,-0.000488281,0,0.997803,0.0886321,0.106812,-0.0676513
45824,-0.000244141,0,0.998291,-0.00292063,-0.0152588,0.0239015
45834,-0.000732422,-0.000244141,0.998291,0.0581145,-0.106812,0.0239015
45844,-0.000244141,0,0.997559,0.0581145,0.0762939,0.115454
45854,0,-0.000244141,0.997803,-0.0639558,-0.0152588,-0.0371337
45864,-0.000244141,0,0.997803,-0.124991,-0.0457764,0.0849366
45874,-0.000732422,0.000488281,0.996826,0.0886321,-0.0457764,-0.159204
45884,-0.000488281,0.000488281,0.996582,0.180185,0.0762939,-0.0676513
45894,-0.000488281,0.000488281,0.996094,-0.124991,-0.0152588,-0.0676513
45904,-0.000488281,0.000244141,0.996094,0.11915,0.0762939,0.0239015
45914,-0.000732422,0,0.996582,-0.0944734,-0.0152588,-0.00661612
45924,-0.000732422,-0.000244141,0.99707,-0.0334382,0.0457764,-0.0676513
45934,-0.000488281,0.000244141,0.996826,-0.00292063,0.106812,-0.0371337
45944,-0.000976562,0.000244141,0.997314,-0.00292063,-0.0152588,0.115454
45954,-0.000732422,-0.000244141,0.997314,0.149667,-0.0762939,-0.0371337
45964,-0.000488281,-0.000244141,0.997559,0.0886321,-0.0457764,0.237525
45974,-0.000488281,-0.000244141,0.997559,-0.0334382,0.0762939,-0.0371337
45984,-0.000732422,-0.000488281,0.997559,-0.124991,-0.0457764,0.176489
45994,-0.000732422,-0.000488281,0.997559,0.149667,-0.0152588,-0.00661612
46004,-0.000488281,-0.000244141,0.997314,-0.0334382,0.106812,0.0239015
46014,-0.000732422,0,0.99707,-0.00292063,-0.0457764,0.115454
46024,-0.000732422,0,0.996826,0.0581145,-0.0457764,-0.00661612
46034,-0.000488281,-0.000244141,0.997314,0.11915,0.0457764,-0.00661612
46044,-0.000732422,-0.000244141,0.997314,-0.00292063,-0.0457764,0.115454
46054,-0.000488281,-0.000244141,0.997559,-0.0639558,-0.0152588,-0.0371337
46064,-0.000488281,-0.000732422,0.996582,-0.155509,-0.167847,-0.0981688
46074,-0.000244141,-0.000488281,0.996826,0.027597,-0.0152588,-0.0371337
46084,-0.000488281,-0.000488281,0.996826,-0.00292063,0.0152588,-0.0981688
46094,-0.000244141,-0.000244141,0.997559,-0.0334382,0.0762939,-0.00661612
46104,-0.000732422,-0.000244141,0.997803,0.0886321,0.0152588,0.0239015
46114,-0.000732422,0,0.997559,0.0581145,-0.106812,-0.220239
46124,-0.000976562,0,0.997559,0.149667,0.0762939,0.115454
46134,-0.000732422,-0.000244141,0.998047,0.149667,0.0152588,0.0239015
46144,-0.000488281,0,0.998047,0.0581145,0.0152588,0.0239015
46154,-0.000488281,0.000244141,0.997559,0.0581145,0.0762939,0.207007
46164,-0.000244141,0.000244141,0.998047,-0.124991,0.0152588,-0.128686
46174,-0.000244141,0.000488281,0.998291,0.0581145,-0.0762939,-0.00661612
46184,-0.000488281,0.000244141,0.998047,0.0886321,0.137329,-0.00661612
46194,-0.000488281,-0.000488281,0.997559,0.027597,0.137329,0.145972
46204,-0.000488281,-0.000488281,0.997314,0.0581145,0.0152588,0.054419
46214,-0.000488281,-0.000488281,0.99707,-0.00292063,-0.0152588,0.0239015
46224,-0.000488281,-0.000488281,0.996826,-0.0334382,0.0457764,-0.159204
46234,-0.000244141,0,0.996826,-0.00292063,-0.0152588,0.145972
46244,-0.000244141,0.000488281,0.997314,0.0581145,0.106812,0.145972
46254,-0.000488281,-0.000244141,0.997559,-0.0639558,0.0457764,0.0239015
46264,-0.000976562,-0.000244141,0.997803,0.0581145,0.167847,0.145972
46274,-0.000976562,0,0.997803,0.027597,-0.0152588,-0.0371337
46284,-0.000488281,0.000244141,0.997559,-0.0639558,-0.0152588,-0.00661612
46294,-0.000732422,0,0.997314,0.0886321,0.106812,-0.0371337
46304,-0.000732422,0.000244141,0.998047,0.027597,0.0152588,-0.0371337
46314,-0.000976562,0,0.997559,-0.0334382,0.0152588,0.0239015
46324,-0.0012207,0.000244141,0.997314,-0.216544,-0.0762939,-0.128686
46334,-0.0012207,0.000244141,0.996582,0.027597,0.289917,0.0849366
46344,-0.000732422,0.000488281,0.996582,-0.0334382,-0.137329,-0.0371337
46354,-0.000732422,0.000488281,0.996582,0.027597,0.137329,-0.159204
46364,-0.000976562,0.000244141,0.996094,0.0886321,0.106812,-0.0676513
46374,-0.000732422,0.000244141,0.996338,0.180185,0.106812,0.054419
46384,-0.000976562,0,0.996582,0.0581145,0.106812,-0.0371337
46394,-0.000732422,0,0.996094,-0.186026,-0.0152588,0.115454
46404,-0.000488281,0,0.996338,-0.0639558,-0.106812,-0.0371337
46414,-0.000488281,0,0.996094,0.180185,-0.0457764,-0.0981688
46424,-0.000244141,0,0.996338,-0.0639558,-0.0152588,0.115454
46434,-0.000244141,0,0.996582,0.0581145,-0.0457764,0.0849366
46444,-0.000488281,-0.000244141,0.99707,-0.0334382,0.0762939,0.145972
46454,-0.000244141,-0.000244141,0.997559,0.11915,-0.0762939,-0.00661612
46464,-0.000244141,-0.000244141,0.997314,0.210702,-0.0457764,-0.0981688
46474,-0.000732422,0,0.997559,0.11915,-0.0762939,0.054419
46484,-0.000732422,-0.000244141,0.997559,0.180185,0.0762939,0.0849366
46494,-0.000488281,0,0.997803,0.11915,0.0762939,0.0239015
46504,-0.000732422,-0.000244141,0.998291,0.027597,0.0457764,-0.128686
46514,-0.000732422,-0.000488281,0.998047,-0.0639558,-0.0457764,0.145972
46524,-0.000244141,-0.000732422,0.998291,0.027597,-0.0762939,0.054419
46534,0,-0.000732422,0.997803,0.027597,0.106812,0.054419
46544,-0.000244141,-0.000488281,0.99707,-0.0334382,-0.0152588,0.054419
46554,-0.000244141,-0.000488281,0.99707,-0.0334382,-0.0152588,-0.0981688
46564,-0.000244141,-0.000488281,0.996826,0.149667,-0.0152588,0.0849366
46574,0.000244141,-0.000488281,0.996338,0.11915,0.0457764,-0.0981688
46584,-0.000244141,-0.000488281,0.996582,-0.0639558,0.0152588,-0.0676513
46594,0,-0.000488281,0.996582,0.027597,-0.0152588,-0.00661612
46604,0.000488281,-0.000244141,0.996582,0.0581145,0.0457764,0.0849366
46614,0.000732422,0,0.996826,0.0886321,-0.0457764,-0.00661612
46624,0.000244141,-0.000244141,0.996826,-0.00292063,0.0457764,-0.00661612
46634,0.000244141,0,0.997559,-0.0944734,-0.106812,0.0849366
46644,0.000244141,0,0.996826,-0.0334382,0.0762939,-0.0981688
46654,-0.000244141,-0.000244141,0.996582,0.11915,0.0152588,0.0239015
46664,-0.000244141,-0.000488281,0.996826,-0.124991,0.198364,0.054419
46674,0,-0.000244141,0.996826,-0.0639558,0.0457764,-0.0676513
46684,0.000244141,-0.000244141,0.996338,0.11915,-0.0457764,-0.0981688
46694,0,-0.000488281,0.996582,0.0886321,-0.0762939,-0.0371337
46704,-0.000244141,-0.000244141,0.996826,-0.00292063,-0.167847,-0.00661612
46714,-0.000488281,-0.000244141,0.996826,-0.00292063,0.0762939,-0.00661612
46734,-0.000488281,-0.000244141,0.99585,0.027597,0.0762939,0.176489
46744,-0.000732422,-0.000244141,0.996094,0.149667,-0.0762939,0.054419
46754,-0.0012207,-0.000244141,0.996338,-0.0334382,-0.0152588,-0.00661612
46764,-0.000732422,-0.000244141,0.996826,0.0886321,-0.0152588,0.0239015
46774,-0.000244141,-0.000244141,0.996582,-0.0944734,0.0152588,0.054419
46784,0,-0.000488281,0.996582,0.0581145,0.0457764,0.268042
46794,-0.000244141,-0.000732422,0.99707,0.11915,-0.0762939,0.0849366
46804,-0.000244141,-0.000488281,0.996582,0.11915,0.0457764,0.054419
46814,-0.000488281,-0.000732422,0.996338,0.0886321,0.0762939,-0.128686
46824,-0.000488281,-0.000244141,0.996582,0.0886321,-0.106812,-0.0371337
46834,-0.000488281,0,0.996826,0.11915,0.0457764,0.115454
46844,-0.000732422,-0.000244141,0.99707,0.0581145,-0.0457764,-0.159204
46854,-0.000732422,-0.000244141,0.997314,0.0886321,0.0457764,0.145972
46864,-0.000732422,-0.000244141,0.996582,0.027597,-0.0762939,-0.00661612
46874,-0.000732422,0.000244141,0.997314,-0.00292063,-0.0152588,0.176489
46884,-0.000732422,0.000244141,0.996826,-0.0334382,0.0762939,0.207007
46894,-0.000732422,0,0.99707,-0.0334382,0.0457764,0.0239015
46904,-0.000976562,-0.000244141,0.996826,-0.00292063,-0.0762939,0.0239015
46914,-0.000976562,-0.000244141,0.996338,0.0886321,-0.0152588,0.0239015
46924,-0.000976562,0,0.996582,0.027597,0.0457764,-0.0676513
46934,-0.000732422,0,0.996582,0.027597,0.0762939,-0.0676513
46944,-0.000488281,0,0.996826,0.027597,-0.0457764,0.0849366
46954,-0.000732422,0,0.996094,0.210702,-0.0457764,-0.00661612
46964,-0.000976562,-0.000244141,0.996582,-0.0334382,0.0152588,0.054419
46974,-0.000244141,-0.000488281,0.996826,0.11915,-0.106812,0.115454
46984,-0.000244141,-0.000732422,0.996582,-0.0334382,-0.0762939,0.0239015
46994,0,-0.000732422,0.996582,0.11915,-0.0457764,-0.128686
47004,-0.000244141,-0.000488281,0.996826,0.11915,0.167847,-0.00661612
47014,-0.000488281,-0.000488281,0.996826,0.0886321,-0.0152588,-0.0371337
47024,-0.000488281,-0.000488281,0.996826,0.0581145,0.0457764,-0.0371337
47034,-0.000732422,-0.000488281,0.997314,0.0581145,0.0762939,0.054419
47044,-0.000488281,0,0.997314,0.11915,-0.0152588,-0.0676513
47054,-0.000244141,0,0.997559,0.271738,0.106812,0.0849366
47064,0,0.000244141,0.997559,-0.0639558,0.0762939,0.145972
47074,-0.000244141,-0.000244141,0.996582,0.027597,0.0762939,0.176489
47084,0,-0.000488281,0.996826,0.027597,-0.0457764,0.115454
47094,0.000244141,-0.000732422,0.996338,-0.0944734,0.137329,-0.0371337
47104,0.000244141,-0.000488281,0.996826,0.149667,0.0457764,-0.00661612
47114,0,-0.000244141,0.997559,-0.0944734,0.0152588,-0.00661612
47124,0,-0.000488281,0.998047,0.0581145,0.0457764,0.145972
47134,-0.000488281,-0.000488281,0.998047,-0.00292063,-0.0457764,-0.0676513
47144,0,-0.000488281,0.998047,0.0886321,0.0152588,-0.128686
47154,0,-0.000244141,0.998047,0.0581145,0.137329,0.145972
47164,0,-0.000488281,0.997803,0.0581145,0.0457764,0.054419
47174,0,-0.000244141,0.997559,-0.0639558,-0.0152588,-0.00661612
47184,-0.000244141,-0.000488281,0.997314,-0.0334382,0.106812,0.115454
47194,-0.000244141,-0.000244141,0.997559,-0.0944734,-0.0152588,0.0849366
47204,-0.000244141,-0.000732422,0.998291,0.149667,-0.0457764,-0.00661612
47214,-0.000488281,-0.000488281,0.998291,0.027597,0.0762939,-0.00661612
47224,-0.000732422,-0.000244141,0.997314,0.149667,-0.0152588,0.237525
47234,-0.000732422,-0.000244141,0.997314,0.0886321,0.0457764,0.0849366
47244,-0.000732422,0,0.996826,0.0886321,0.0457764,0.0239015
47254,-0.000732422,0,0.996094,0.027597,-0.106812,-0.0371337
47264,0,0,0.996582,0.027597,0.0457764,0.176489
47274,-0.000244141,0.000244141,0.996338,0.027597,0.0762939,0.0239015
47284,-0.000244141,-0.000244141,0.996582,0.0581145,-0.0152588,0.0849366
47294,-0.000732422,0,0.996338,0.149667,0.0457764,0.0239015
47304,-0.000488281,0,0.996582,-0.0639558,0.106812,-0.128686
47314,-0.000732422,-0.000244141,0.99707,0.0581145,0.106812,0.145972
47324,-0.000732422,0,0.997314,-0.0639558,-0.0457764,0.115454
47334,-0.000488281,-0.000488281,0.996826,0.210702,-0.167847,-0.0371337
47344,-0.000488281,0,0.997314,-0.00292063,0.0152588,-0.0981688
47354,-0.000244141,-0.000244141,0.99707,0.0581145,-0.0152588,-0.00661612
47364,0,-0.000732422,0.997314,0.149667,0.0152588,-0.0981688
47374,-0.000244141,-0.000488281,0.996094,-0.00292063,0.0152588,0.145972
47384,-0.000732422,0,0.996338,0.027597,0.0152588,0.115454
47394,-0.000488281,0,0.99585,0.0581145,-0.0152588,-0.0676513
47404,-0.000488281,0,0.996826,0.027597,-0.0457764,-0.0371337
47414,0,0.000244141,0.996826,0.027597,0.167847,0.145972
47424,-0.000244141,0.000244141,0.996338,-0.00292063,0.0762939,0.0849366
47434,-0.000244141,0,0.996338,0.027597,0.0152588,0.176489
47444,-0.000488281,-0.000244141,0.996338,0.11915,-0.0152588,-0.189722
47454,-0.000244141,-0.000244141,0.99707,0.0886321,-0.106812,0.0239015
47464,-0.000732422,-0.000244141,0.996826,0.24122,0.0457764,0.0239015
47474,-0.000732422,-0.000244141,0.996338,-0.00292063,-0.0152588,-0.0371337
47484,0,-0.000244141,0.996094,0.0581145,0.106812,0.0239015
47494,0,0,0.99585,0.11915,-0.0152588,0.145972
47504,-0.000244141,0,0.995605,0.149667,-0.0152588,0.0849366
47514,-0.000244141,0,0.996094,0.11915,-0.0457764,0.0849366
47524,-0.000244141,0,0.996338,0.0886321,-0.0762939,0.0849366
47534,0,0,0.99707,-0.00292063,-0.0457764,0.0239015
47544,0,-0.000488281,0.996826,0.11915,0.0457764,-0.00661612
47554,-0.000244141,-0.000244141,0.997314,-0.0334382,0.198364,0.0239015
47564,-0.000244141,-0.000244141,0.997314,-0.0334382,0.106812,0.145972
47574,-0.000244141,-0.000488281,0.99707,-0.00292063,0.0152588,-0.159204
47584,-0.000244141,-0.000488281,0.997314,-0.155509,0.0457764,0.115454
47594,-0.000244141,-0.000976562,0.997314,-0.124991,-0.0762939,0.054419
47604,0,-0.000732422,0.997559,0.149667,0.0457764,0.054419
47614,-0.000244141,-0.000732422,0.997803,0.027597,0.137329,0.268042
47624,-0.000732422,-0.000244141,0.997314,-0.155509,0.0762939,0.115454
47634,-0.000244141,-0.000488281,0.99707,-0.155509,0.0457764,0.145972
47644,0,-0.000244141,0.996826,-0.00292063,-0.0457764,0.145972
47654,0.000244141,-0.000732422,0.997314,-0.00292063,0.106812,-0.0371337
47664,0.000244141,-0.000488281,0.99707,0.149667,-0.0152588,0.207007
47674,0.000244141,-0.000244141,0.997559,0.149667,0.167847,-0.0676513
47684,0,-0.000244141,0.998291,-0.0639558,0.0457764,0.0239015
47694,0.000244141,-0.000732422,0.997803,-0.0639558,0.0152588,-0.0676513
47704,0.000244141,-0.000488281,0.997314,0.027597,0.0457764,0.115454
47714,0.000244141,-0.000488281,0.99707,0.0581145,0.0762939,-0.0981688
47724,0.000244141,-0.000732422,0.99707,0.027597,0.0457764,-0.0676513
47734,-0.000244141,-0.000488281,0.99707,0.0581145,0.106812,-0.0981688
47744,-0.000488281,-0.000244141,0.996582,-0.0639558,-0.0152588,0.115454
47754,-0.000244141,-0.000488281,0.996582,0.027597,-0.0152588,-0.00661612
47764,0.000244141,-0.000488281,0.996582,0.027597,0.0152588,0.115454
47774,0,0,0.996826,-0.0334382,-0.0457764,0.0239015
47784,0.000244141,0,0.99707,-0.00292063,0.0152588,0.054419
47794,0,0.000244141,0.996582,-0.00292063,0.0762939,0.115454
47804,0.000244141,0,0.996338,0.0886321,-0.0457764,-0.128686
47814,0.000244141,0,0.996826,-0.0334382,0.0152588,0.207007
47824,0.000488281,0.000244141,0.996094,-0.0944734,-0.0457764,-0.0371337
47834,0,-0.000244141,0.996338,0.0581145,-0.0457764,0.054419
47844,-0.000488281,0,0.996582,0.0581145,0.0457764,0.054419
47854,-0.000244141,-0.000244141,0.996582,-0.0639558,0.137329,0.0239015
47864,-0.000244141,-0.000732422,0.996826,-0.00292063,-0.0457764,-0.00661612
47874,-0.000488281,-0.000488281,0.996826,-0.00292063,0.0762939,0.115454
47884,-0.000488281,-0.000244141,0.996826,-0.00292063,-0.137329,-0.00661612
47894,-0.000244141,-0.000244141,0.997803,-0.00292063,-0.0762939,0.0239015
47904,0,-0.000244141,0.99707,0.11915,-0.0457764,0.145972
47914,0.000244141,-0.000244141,0.99707,0.027597,0.0762939,0.0849366
47924,0.000732422,-0.000488281,0.99707,-0.00292063,-0.0762939,0.0239015
47934,0.000488281,-0.000732422,0.996582,0.210702,-0.0152588,0.054419
47944,0.000488281,-0.000244141,0.996582,-0.00292063,-0.106812,-0.0371337
47954,0,-0.000488281,0.996582,0.027597,-0.0762939,-0.0371337
47964,0.000244141,0,0.99707,0.149667,-0.0152588,0.115454
47974,0.000488281,-0.000244141,0.997803,-0.0639558,0.0457764,0.054419
47984,0,0,0.997314,0.180185,-0.137329,0.0849366
47994,0.000244141,-0.000488281,0.997559,0.11915,0.0152588,0.054419
48004,0.000732422,-0.000244141,0.997314,0.027597,0.0762939,0.0849366
48024,0.000488281,0.000488281,0.99707,0.0581145,0.0152588,0.0239015
48034,0.000488281,0.000732422,0.99707,0.027597,0.0762939,0.0239015
48044,0.000488281,0.000244141,0.997314,0.027597,0.0152588,0.054419
48054,0.000488281,0,0.99707,-0.0639558,-0.137329,0.115454
48064,0.000488281,0,0.996582,0.0886321,-0.137329,-0.00661612
48074,0.000488281,0,0.996338,0.210702,0.0762939,-0.281274
48084,0.000244141,0.000488281,0.996582,0.11915,0.0457764,0.145972
48094,0.000244141,0.000244141,0.996338,0.027597,-0.0152588,0.0849366
48104,-0.000244141,0,0.996338,0.027597,0.0152588,0.115454
48114,-0.000244141,0,0.996338,0.027597,0.0762939,-0.0371337
48134,0,-0.000244141,0.996826,0.11915,-0.0152588,-0.00661612
48144,0,-0.000488281,0.996582,0.0886321,-0.0152588,0.0239015
48154,0.000244141,-0.000488281,0.996826,-0.00292063,-0.0152588,-0.0371337
48164,0,-0.000488281,0.996826,0.180185,0.106812,-0.0676513
48174,-0.000244141,-0.000488281,0.997559,0.0886321,-0.0457764,0.207007
48184,0,-0.000244141,0.997314,-0.0334382,0.0457764,0.0239015
48194,-0.000244141,-0.000488281,0.997314,-0.00292063,-0.0457764,-0.0981688
48204,-0.000244141,-0.000488281,0.996826,0.0581145,0.0457764,-0.0371337
48214,0.000244141,-0.000244141,0.996826,-0.00292063,0.106812,0.054419
48224,0,-0.000244141,0.996094,0.0886321,0.0152588,-0.128686
48234,0.000244141,-0.000244141,0.996338,0.0581145,0.0762939,0.0849366
48244,0.000244141,-0.000244141,0.996338,0.0886321,0.0762939,-0.00661612
48254,0.000244141,-0.000488281,0.99707,0.0886321,-0.0457764,-0.00661612
48274,-0.000244141,-0.000244141,0.99707,0.0886321,0.0457764,-0.0371337
48284,-0.000488281,0,0.997314,0.11915,-0.0152588,-0.189722
48294,-0.000488281,-0.000732422,0.997314,-0.0944734,-0.0457764,-0.0676513
48304,-0.000488281,-0.000732422,0.997314,0.11915,0.106812,0.054419
48314,-0.000488281,-0.000976562,0.99707,-0.00292063,0.0152588,-0.0981688
48324,-0.000488281,-0.000732422,0.996582,0.027597,0.0762939,0.0849366
48334,-0.000488281,-0.000732422,0.99707,0.027597,-0.0152588,0.0239015
48344,-0.000488281,-0.000488281,0.996826,0.0581145,0.198364,-0.0981688
48354,-0.000488281,-0.000732422,0.99707,-0.0639558,-0.106812,0.0849366
48364,-0.000488281,-0.000488281,0.996582,-0.0944734,0.0457764,0.054419
48374,-0.000488281,-0.000488281,0.996582,-0.00292063,0.106812,-0.0371337
48384,-0.000732422,-0.000244141,0.996582,0.11915,-0.0152588,-0.0371337
48394,-0.000732422,-0.000244141,0.99707,-0.0639558,-0.0152588,-0.00661612
48404,-0.000976562,-0.000488281,0.99707,0.0581145,0.106812,0.176489
48414,-0.000732422,-0.000244141,0.997559,0.210702,0.0457764,-0.0981688
48424,-0.000732422,0,0.997803,0.24122,-0.0457764,-0.0981688
48434,-0.000732422,-0.000244141,0.997803,0.0581145,-0.0152588,-0.0676513
48444,-0.000488281,0,0.997559,-0.0944734,0.0457764,0.145972
48454,-0.000244141,-0.000244141,0.997314,-0.00292063,-0.137329,0.115454
48464,0,-0.000244141,0.997314,0.027597,0.0152588,-0.128686
48474,-0.000244141,0,0.996826,0.027597,0.0457764,-0.0676513
48484,0,0,0.99707,0.149667,-0.0457764,0.054419
48494,-0.000244141,0,0.996826,0.027597,0.0762939,-0.159204
48504,0,-0.000488281,0.996582,0.027597,0.0457764,0.207007
48514,0,-0.000244141,0.996582,-0.0334382,0.0152588,-0.0371337
48524,0,-0.000732422,0.996582,-0.0944734,0.106812,-0.128686
48534,0,-0.000732422,0.99707,-0.0639558,0.0152588,0.237525
48544,-0.000244141,-0.000732422,0.996582,-0.00292063,0.0762939,0.145972
48554,0,-0.000732422,0.99585,0.0886321,-0.0457764,-0.0371337
48564,-0.000244141,-0.000488281,0.99585,0.0886321,0.0152588,-0.0371337
48574,-0.000732422,-0.000488281,0.996094,0.0886321,0.0152588,-0.00661612
48584,-0.000244141,-0.000244141,0.996338,-0.0944734,0.0457764,0.0239015
48594,-0.000488281,-0.000488281,0.99707,0.11915,0.137329,-0.128686
48604,-0.000732422,-0.000244141,0.996338,-0.00292063,0.167847,-0.0371337
48614,-0.000488281,-0.000244141,0.996094,-0.00292063,0.0762939,0.0239015
48624,-0.000244141,-0.000244141,0.996582,0.0886321,-0.0457764,-0.00661612
48634,0,-0.000488281,0.996582,-0.124991,0.0457764,-0.0371337
48644,-0.000488281,-0.000976562,0.99707,-0.0639558,0.0152588,-0.159204
48654,-0.000488281,-0.000976562,0.997559,-0.00292063,-0.0152588,0.054419
48664,-0.000244141,-0.000976562,0.997803,-0.0639558,-0.0457764,0.054419
48674,0.000244141,-0.000976562,0.997314,-0.155509,0.0152588,0.0239015
48684,0.000488281,-0.0012207,0.997803,-0.0944734,0.137329,-0.00661612
48694,0.000244141,-0.000976562,0.997314,-0.124991,-0.0457764,-0.00661612
48704,0.000488281,-0.000976562,0.996826,-0.00292063,0.0457764,-0.00661612
48714,0,-0.0012207,0.996582,0.0581145,-0.0762939,0.0239015
48724,0,-0.000976562,0.997559,0.0886321,0.0457764,0.0849366
48734,-0.000488281,-0.000976562,0.997559,-0.0334382,0.0762939,-0.0371337
48744,-0.000732422,-0.000488281,0.99707,0.027597,0.0762939,0.0239015
48754,-0.000976562,-0.000488281,0.996582,0.180185,-0.0457764,0.0239015
48764,-0.000976562,-0.000244141,0.996094,-0.0944734,0.0152588,-0.0676513
48774,-0.000976562,-0.000244141,0.996338,-0.00292063,-0.0762939,-0.0981688
48784,-0.0012207,0.000488281,0.996582,-0.0639558,0.0762939,0.0849366
48794,-0.000976562,0.000488281,0.996826,0.0886321,0.106812,0.0849366
48804,-0.000976562,0,0.996826,0.0581145,0.0457764,-0.00661612
48814,-0.000732422,0.000488281,0.99707,0.0886321,0.0152588,0.054419
48824,-0.000732422,-0.000244141,0.99707,-0.00292063,0.0152588,0.054419
48834,-0.000488281,-0.000244141,0.99707,0.027597,-0.0152588,0.0239015
48844,-0.000488281,-0.000244141,0.997314,0.0886321,-0.0762939,0.0239015
48854,0,-0.000488281,0.997314,-0.0334382,0.106812,0.115454
48864,-0.000488281,-0.000488281,0.996338,0.149667,0.137329,-0.00661612
48874,-0.000488281,-0.000488281,0.996826,0.210702,0.0152588,-0.0981688
48884,-0.000732422,-0.000244141,0.996582,0.027597,-0.0457764,-0.281274
48894,-0.000732422,-0.000488281,0.996582,0.0886321,0.106812,0.054419
48904,-0.000244141,-0.000244141,0.996826,-0.00292063,-0.137329,0.0239015
48914,0,-0.000976562,0.996582,0.180185,0.106812,0.0849366
48924,-0.000244141,-0.000732422,0.996826,0.0581145,0.0457764,0.176489
48934,0.000244141,-0.000732422,0.997314,0.0581145,-0.0457764,0.0849366
48944,0.000244141,-0.000732422,0.996582,-0.0639558,0.0152588,0.0849366
48954,0,-0.000244141,0.996582,-0.155509,0.106812,-0.00661612
48964,-0.000244141,-0.000244141,0.996826,0.0581145,0.0762939,0.054419
48974,-0.000244141,-0.000488281,0.997314,-0.0944734,-0.0152588,0.0849366
48984,-0.000244141,-0.000732422,0.997314,0.027597,-0.0457764,-0.128686
48994,-0.000244141,-0.000732422,0.996826,-0.124991,0.0152588,-0.0981688
49004,-0.000244141,-0.000732422,0.996826,-0.00292063,0.0457764,-0.00661612
49014,-0.000244141,-0.000976562,0.996826,0.11915,0.0457764,-0.0371337
49024,-0.000488281,-0.000732422,0.996582,0.24122,0.0152588,-0.0981688
49034,-0.000488281,-0.000732422,0.996338,0.0581145,0.0457764,0.0239015
49044,-0.000488281,-0.000488281,0.996338,-0.00292063,0.0457764,0.0239015
49054,-0.000488281,-0.000244141,0.996826,0.11915,-0.0762939,0.145972
49064,-0.000488281,-0.000488281,0.996582,0.180185,0.167847,-0.128686
49074,-0.000488281,-0.000732422,0.996826,-0.00292063,0.0152588,-0.128686
49084,-0.000488281,-0.000732422,0.99707,0.0886321,-0.0152588,0.0239015
49094,-0.000488281,-0.000976562,0.997559,-0.00292063,-0.0762939,-0.0371337
49104,-0.000732422,-0.000732422,0.997803,0.0581145,0.0152588,-0.0676513
49114,-0.000488281,-0.000732422,0.997803,0.0581145,0.0152588,-0.00661612
49124,-0.000488281,-0.000244141,0.997314,0.210702,0.0152588,0.054419
49134,-0.000732422,0,0.997314,0.0581145,0.0457764,0.054419
49144,-0.000732422,-0.000244141,0.996826,0.0581145,0.106812,0.0239015
49154,-0.000488281,-0.000244141,0.997314,0.027597,-0.0457764,0.145972
49164,-0.000488281,0,0.997803,0.027597,0.0457764,-0.0371337
49174,-0.000488281,-0.000244141,0.997314,0.180185,-0.0457764,0.0239015
49184,-0.000488281,-0.000244141,0.99707,-0.186026,-0.0762939,-0.00661612
49194,-0.000244141,-0.000244141,0.996582,-0.124991,-0.0457764,-0.0981688
49204,-0.000732422,-0.000488281,0.997314,-0.00292063,0.0152588,-0.0371337
49214,-0.000488281,-0.000488281,0.997559,0.0581145,-0.106812,-0.0371337
49224,-0.000244141,-0.000488281,0.997803,0.0581145,0.0152588,0.0239015
49234,0,-0.000244141,0.997314,0.027597,-0.0152588,-0.0371337
49244,0.000244141,0,0.99707,0.0581145,0.137329,-0.0371337
49254,-0.000488281,0.000244141,0.99707,-0.0639558,0.137329,-0.0981688
49264,-0.000488281,0,0.996582,0.0581145,0.0457764,-0.00661612
49274,-0.000488281,0,0.996582,-0.0334382,-0.0457764,0.054419
49284,0,-0.000244141,0.996338,-0.0334382,0.0762939,0.0849366
49294,-0.000244141,-0.000244141,0.996582,0.0886321,0.0457764,-0.159204
49304,-0.000488281,0,0.996582,-0.00292063,-0.0457764,0.054419
49314,-0.000488281,0,0.996582,0.027597,-0.0152588,0.0849366
49324,-0.000488281,-0.000244141,0.996338,0.180185,0.0762939,-0.00661612
49334,-0.000488281,-0.000732422,0.996338,0.0581145,0.106812,-0.0676513
49344,-0.000244141,-0.000488281,0.99707,0.0886321,0.0152588,-0.00661612
49354,-0.000244141,-0.000488281,0.996826,0.149667,-0.0457764,0.0849366
49364,-0.000732422,-0.000732422,0.996826,-0.0334382,0.0457764,0.0239015
49374,-0.000976562,-0.000732422,0.997314,-0.00292063,0.0152588,0.054419
49384,-0.000976562,-0.000732422,0.996582,0.027597,0.0152588,-0.00661612
49394,-0.000732422,-0.000244141,0.99707,-0.0639558,-0.0152588,0.115454
49404,-0.000732422,-0.000244141,0.997559,0.0581145,-0.0152588,0.0849366
49414,-0.000732422,-0.000244141,0.997803,-0.0334382,-0.0457764,0.054419
49424,-0.000732422,-0.000244141,0.997803,0.027597,0.0152588,0.145972
49434,-0.000976562,-0.000488281,0.998047,-0.0639558,-0.0152588,0.0849366
49444,-0.0012207,-0.000488281,0.997803,0.027597,0.0762939,0.054419
49454,-0.000976562,-0.000488281,0.997314,-0.0334382,-0.0152588,0.0849366
49464,-0.000488281,0,0.996826,-0.00292063,0.0762939,0.0239015
49474,-0.000488281,-0.000244141,0.997314,-0.00292063,-0.0762939,-0.220239
49484,-0.000244141,0,0.997314,0.149667,0.106812,-0.128686
49494,-0.000244141,0.000244141,0.99707,-0.0334382,-0.0457764,0.145972
49504,-0.000244141,0.000488281,0.997803,0.11915,0.0762939,0.054419
49514,-0.000488281,0.000244141,0.99707,-0.124991,0.106812,-0.00661612
49524,-0.000976562,0,0.996338,0.0581145,0.0152588,-0.0981688
49534,-0.000488281,-0.000244141,0.996582,0.11915,-0.0152588,0.0239015
49544,-0.000732422,0,0.99707,0.210702,-0.0152588,-0.0981688
49554,-0.000732422,-0.000244141,0.996826,0.0581145,0.106812,-0.0676513
49564,-0.000244141,-0.000488281,0.997314,0.0886321,-0.0457764,-0.0676513
49574,-0.000244141,-0.000244141,0.997559,-0.0944734,0.0152588,-0.00661612
49584,-0.000244141,0,0.997559,0.149667,0.106812,0.237525
49594,-0.000488281,0,0.998047,-0.00292063,-0.167847,0.0849366
49614,-0.000732422,0,0.997559,-0.0334382,0.0457764,-0.00661612
49624,-0.000976562,0.000488281,0.997559,0.0886321,-0.0762939,0.0239015
49634,-0.000976562,0.000976562,0.996582,0.027597,0.106812,-0.0981688
49644,-0.000732422,0.000488281,0.997314,-0.0334382,-0.0457764,-0.0676513
49654,-0.000732422,0.000488281,0.996582,-0.00292063,0.0457764,-0.0676513
49664,-0.000488281,0.000488281,0.99707,-0.00292063,0.167847,-0.189722
49674,-0.000488281,0.000488281,0.997314,0.11915,0.0152588,-0.0676513
49684,-0.000732422,0.000732422,0.997559,-0.0334382,-0.0457764,0.145972
49694,-0.000732422,0.000244141,0.997559,0.149667,0.137329,-0.00661612
49704,-0.000732422,0.000244141,0.997559,-0.0639558,0.0152588,-0.00661612
49714,-0.000976562,0,0.997559,0.180185,0.0152588,-0.00661612
49724,-0.000488281,-0.000244141,0.99707,-0.0944734,-0.0457764,0.0849366
49734,-0.000244141,0,0.997314,0.0581145,0.0762939,0.0849366
49744,0,-0.000488281,0.998047,0.11915,0.0457764,0.054419
49754,-0.000244141,-0.000488281,0.997559,-0.0639558,-0.0457764,0.145972
49764,-0.000488281,-0.000244141,0.997803,0.0581145,0.0152588,-0.0371337
49774,-0.000488281,0,0.997559,0.0581145,-0.0152588,0.0239015
49784,-0.000244141,0,0.998047,-0.124991,0.106812,0.176489
49794,-0.000244141,0.000244141,0.997314,0.027597,-0.0457764,0.054419
49804,0,-0.000244141,0.997314,-0.0334382,0.106812,-0.0676513
49814,0,-0.000244141,0.99707,0.0581145,0.0152588,-0.0371337
49824,-0.000244141,-0.000244141,0.997314,-0.00292063,0.0457764,0.0239015
49834,0,-0.000488281,0.997314,-0.0639558,-0.106812,-0.0981688
49844,-0.000244141,-0.000976562,0.996826,-0.0334382,0.0152588,-0.128686
49854,-0.000488281,-0.000488281,0.99707,0.0886321,-0.0762939,0.145972
49864,-0.000244141,-0.000244141,0.997314,0.027597,-0.106812,-0.0371337
49874,0.000244141,-0.000244141,0.997559,0.0581145,0.0457764,-0.00661612
49884,0.000244141,-0.000244141,0.997314,0.027597,0.0152588,0.0849366
49894,-0.000244141,0,0.99707,0.24122,0.0762939,0.0239015
49904,-0.000488281,0,0.997314,0.11915,0.0152588,-0.0371337
49914,-0.000244141,0.000244141,0.997559,-0.0334382,0.0152588,0.0849366
49924,0,0.000488281,0.99707,-0.0639558,-0.0152588,-0.0676513
49934,0.000244141,0,0.99707,-0.0944734,0.0762939,-0.0371337
49954,0,-0.000244141,0.997314,-0.0639558,-0.0457764,-0.0371337
49964,-0.000244141,-0.000244141,0.997314,-0.00292063,0.0457764,0.0239015
49984,0,-0.000732422,0.99707,-0.00292063,-0.0762939,0.0849366
49994,-0.000244141,-0.000732422,0.997314,0.0886321,0.106812,0.145972
50004,-0.000488281,-0.000488281,0.997559,-0.0334382,0.0152588,0.145972
50014,-0.000732422,-0.000488281,0.996826,-0.0944734,-0.0152588,-0.128686
50034,-0.000976562,-0.000976562,0.997314,-0.00292063,-0.106812,-0.0371337
50044,-0.000732422,-0.000976562,0.997314,-0.0944734,-0.0457764,-0.00661612
50054,-0.000488281,-0.000976562,0.997314,0.0581145,-0.0457764,0.0849366
50064,0,-0.000732422,0.997559,-0.0639558,0.0457764,0.0849366
50074,0,-0.000732422,0.997314,0.180185,-0.0152588,0.0849366
50084,-0.000244141,-0.000488281,0.997559,-0.00292063,0.0457764,0.115454
50094,-0.000244141,-0.000732422,0.997314,0.180185,-0.137329,-0.0371337
50104,0,-0.000244141,0.99707,0.0581145,-0.0457764,0.0239015
50114,0.000244141,0,0.996826,0.149667,0.0457764,0.115454
50124,-0.000488281,-0.000488281,0.996582,0.027597,-0.0152588,-0.00661612
50134,-0.000488281,-0.000732422,0.996338,-0.0639558,0.0152588,-0.0676513
50144,-0.000976562,-0.000732422,0.996826,-0.0944734,-0.0152588,-0.00661612
50154,-0.000488281,-0.000732422,0.997314,-0.186026,-0.0762939,0.0849366
50164,-0.000244141,-0.000732422,0.99707,0.0581145,0.0457764,-0.0371337
50174,-0.000244141,-0.000732422,0.997314,0.0581145,0.0457764,0.0849366
50184,0,-0.000488281,0.997314,0.027597,-0.106812,0.054419
50194,0,-0.000488281,0.997559,0.0886321,0.0152588,0.0239015
50204,0,-0.000244141,0.99707,-0.0944734,-0.0762939,0.0239015
50214,0,-0.000244141,0.99707,-0.0944734,-0.0152588,0.0239015
50224,-0.000244141,-0.000244141,0.997314,-0.0334382,0.0152588,-0.0981688
50234,-0.000488281,0,0.997559,0.149667,0.0457764,0.176489
50244,-0.000488281,0,0.998535,0.210702,-0.0152588,-0.0676513
50254,-0.000244141,-0.000244141,0.998291,-0.0944734,0.0152588,0.207007
50264,-0.000488281,0,0.998535,0.0886321,0.0762939,0.0239015
50274,-0.000488281,0,0.998535,0.027597,-0.0457764,0.176489
50284,-0.000244141,0,0.998535,0.24122,-0.0152588,-0.00661612
50294,-0.000488281,0.000488281,0.998291,-0.0639558,-0.0457764,-0.0676513
50304,-0.000244141,0.000488281,0.998291,0.0886321,-0.0762939,-0.189722
50314,-0.000488281,0.000488281,0.998047,0.149667,0.0457764,-0.0981688
50324,0,0,0.997803,0.149667,0.0457764,0.115454
50334,0,0.000244141,0.997314,0.11915,0.0762939,-0.0371337
50344,-0.000244141,0,0.99707,0.027597,0.137329,-0.0981688
50354,0,0,0.996826,-0.0639558,-0.0457764,-0.00661612
50364,-0.000244141,0.000244141,0.99707,0.027597,0.198364,0.0849366
50374,-0.000244141,-0.000244141,0.997314,0.0581145,0.106812,-0.0371337
50384,0,-0.000244141,0.997314,0.180185,-0.0152588,0.0239015
50394,-0.000244141,-0.000488281,0.997314,0.180185,0.0457764,-0.0676513
50404,-0.000244141,-0.000488281,0.998291,0.149667,-0.0152588,0.0239015
50414,-0.000244141,-0.000488281,0.997803,-0.0639558,0.0457764,0.0849366
50424,-0.000488281,-0.000244141,0.997559,0.0886321,0.106812,0.0849366
50434,-0.000244141,0,0.998291,-0.0334382,0.0762939,-0.00661612
50444,0,0,0.998291,0.180185,0.0457764,0.0239015
50454,0,0,0.998047,-0.0639558,0.0457764,0.054419
50464,-0.000244141,0,0.99707,0.149667,0.0152588,0.054419
50474,-0.000488281,0,0.996582,-0.0639558,-0.0152588,0.0239015
50484,-0.000244141,-0.000244141,0.996826,-0.00292063,0.0762939,-0.189722
50494,-0.000488281,-0.000488281,0.997314,0.11915,-0.0457764,-0.0371337
50504,0,-0.000732422,0.99707,-0.00292063,0.0152588,0.0239015
50514,-0.000244141,-0.000732422,0.99707,0.0886321,-0.0152588,0.054419
50524,-0.000488281,-0.000488281,0.997314,0.149667,-0.0152588,0.0239015
50534,-0.000488281,-0.000732422,0.997803,-0.00292063,0.0152588,0.145972
50544,-0.000488281,-0.000732422,0.99707,0.0581145,0.0152588,0.115454
50554,-0.000244141,-0.000244141,0.99707,0.0581145,-0.0152588,0.0239015
50564,-0.000244141,0,0.996826,-0.00292063,0.0152588,-0.0371337
50574,-0.000488281,0,0.997314,0.11915,-0.0762939,-0.0371337
50584,-0.000244141,0,0.998047,0.180185,0.0152588,-0.0981688
50594,-0.000732422,0,0.997803,0.149667,0.0152588,-0.0371337
50604,-0.0012207,0,0.997559,-0.0334382,0.0457764,-0.00661612
50614,-0.000976562,0,0.997803,-0.0639558,-0.0762939,-0.0981688
50624,-0.000976562,0,0.997559,0.149667,0.0762939,-0.128686
50634,-0.000488281,0,0.997559,0.0886321,0.0457764,-0.0371337
50644,-0.000244141,0,0.997559,-0.0334382,-0.106812,0.115454
50654,0,0,0.99707,0.027597,0.0762939,0.0239015
50664,0,-0.000488281,0.996582,-0.0334382,0.0762939,0.0849366
50674,-0.000244141,-0.000732422,0.996338,-0.0334382,-0.0152588,-0.0371337
50684,-0.000244141,-0.000488281,0.996094,-0.00292063,0.167847,-0.0371337
50694,-0.000488281,-0.000244141,0.99585,0.0886321,0.137329,0.0849366
50704,-0.000244141,0,0.996094,0.027597,0.0457764,0.0239015
50714,0,0,0.996094,0.11915,0.0762939,-0.0981688
50724,-0.000732422,-0.000488281,0.996338,-0.0639558,0.0762939,-0.0371337
50734,-0.000732422,0,0.996582,0.0581145,0.0457764,0.054419
50744,-0.000244141,0,0.99585,-0.0639558,0.0762939,-0.128686
50754,-0.000488281,-0.000244141,0.996582,0.0581145,0.0457764,-0.0676513
50764,-0.000244141,0,0.996826,0.149667,0.0152588,-0.281274
50774,-0.000244141,-0.000244141,0.996826,0.0886321,-0.0457764,0.115454
50784,0,0,0.997314,0.0886321,0.0152588,0.0849366
50794,0,-0.000244141,0.996826,-0.0944734,-0.0457764,-0.0371337
50804,0,0,0.99707,-0.00292063,-0.0457764,-0.0371337
50814,0.000244141,-0.000488281,0.996826,-0.0639558,-0.0457764,0.0849366
50824,0.000244141,-0.000732422,0.996338,0.0581145,-0.0762939,0.054419
50834,0,-0.000488281,0.996094,0.027597,0.137329,-0.0676513
50844,0.000244141,-0.000488281,0.996094,0.210702,-0.0152588,0.054419
50854,0.000244141,-0.000244141,0.996338,-0.0334382,0.0152588,0.0239015
50864,0.000244141,-0.000244141,0.996582,0.027597,-0.0457764,-0.0371337
50874,0.000244141,-0.000244141,0.996338,-0.0334382,0.137329,-0.00661612
50884,0.000488281,-0.000244141,0.996582,-0.0334382,-0.0152588,-0.0371337
50894,0.000488281,-0.000244141,0.996582,0.0886321,-0.0457764,-0.0676513
50904,0.000488281,-0.000488281,0.99707,0.0581145,0.0457764,0.0239015
50914,0,-0.000732422,0.996582,-0.124991,0.0152588,-0.0371337
50924,0.000244141,-0.000244141,0.996826,-0.0944734,-0.0762939,0.054419
50934,0.000244141,-0.000488281,0.997559,-0.0334382,-0.106812,-0.0371337
50944,0.000732422,0,0.996826,0.0581145,0.0152588,0.054419
50954,0.000488281,-0.000244141,0.996826,0.11915,-0.137329,-0.159204
50964,0.000244141,-0.000488281,0.996338,0.180185,0.0457764,0.0849366
50974,0.000488281,-0.000488281,0.996582,0.0581145,0.0457764,0.0239015
50994,0.000488281,-0.000976562,0.996582,0.180185,0.0762939,0.207007
51004,0.000244141,-0.000732422,0.996582,-0.0639558,0.0457764,0.237525
51014,0.000732422,-0.000732422,0.996826,-0.155509,0.0457764,-0.00661612
51024,0.000732422,-0.000244141,0.996826,0.0581145,0.0457764,0.0849366
51034,0.000488281,0,0.996338,-0.0334382,-0.0152588,-0.0676513
51044,0.000244141,-0.000244141,0.996582,0.0581145,-0.0152588,-0.128686
51054,0.000488281,-0.000244141,0.996826,0.0886321,0.0457764,-0.00661612
51064,0.000244141,0,0.99707,-0.0639558,0.0762939,-0.0371337
51074,0,0,0.997314,-0.0944734,0.0152588,0.237525
51084,0.000488281,-0.000244141,0.997314,0.0581145,-0.0152588,-0.0981688
51094,0.000488281,0,0.997559,0.11915,-0.0457764,-0.0676513
51104,0.000488281,0,0.997314,-0.0334382,-0.0152588,-0.00661612
51114,0.000244141,0.000244141,0.996826,-0.0639558,0.0457764,0.0239015
51134,0.000244141,0.000244141,0.996582,0.027597,0.0762939,0.054419
51144,0.000488281,0.000488281,0.99707,-0.0639558,0.167847,0.145972
51154,0.000488281,0.000732422,0.996582,0.027597,0.137329,0.0239015
51164,0.000244141,0.000244141,0.996582,0.210702,-0.106812,0.0239015
51174,0.000244141,-0.000244141,0.996582,0.0886321,0.0762939,-0.189722
51184,0.000244141,-0.000244141,0.996582,0.0581145,0.0762939,-0.0676513
51194,-0.000244141,-0.000244141,0.996582,0.11915,0.106812,0.0849366
51204,0.000244141,-0.000244141,0.996582,-0.0944734,0.0152588,0.0849366
51214,0.000244141,0,0.996582,0.027597,0.0762939,-0.00661612
51234,0,0,0.996582,0.027597,0.0762939,0.0849366
51244,-0.000244141,0,0.996582,0.149667,0.0762939,0.115454
51254,0,-0.000244141,0.996582,0.11915,0.167847,-0.00661612
51264,0.000244141,-0.000244141,0.996094,-0.0944734,0.0457764,-0.00661612
51274,0.000244141,0,0.996582,0.0886321,-0.0457764,-0.0981688
51284,0,0,0.996826,0.027597,0.137329,0.054419
51294,0,0,0.996826,0.11915,-0.0762939,0.115454
51304,0.000244141,-0.000244141,0.996826,0.0581145,-0.0762939,-0.0981688
51314,0.000244141,-0.000244141,0.996094,0.027597,0.0457764,0.0239015
51324,0.000488281,0.000488281,0.996582,0.0581145,-0.167847,0.0849366
51334,0.000244141,0.000244141,0.99707,-0.00292063,-0.0152588,0.0239015
51344,0,0,0.996826,0.149667,0.0457764,-0.0371337
51354,0.000244141,0,0.99707,0.0581145,0.106812,-0.0676513
51364,0.000244141,-0.000488281,0.997314,0.11915,0.0762939,-0.0981688
51374,0.000488281,-0.000488281,0.997314,-0.0334382,-0.106812,0.0239015
51384,0.000732422,-0.000244141,0.99707,-0.0639558,-0.0152588,0.054419
51394,0.000732422,0,0.997559,-0.0944734,-0.0457764,0.207007
51404,0.000488281,0,0.997559,0.027597,0.0457764,0.145972
51414,0.000488281,-0.000488281,0.997803,-0.0639558,-0.0152588,-0.0676513
51424,0.000488281,-0.000244141,0.998047,0.302255,-0.137329,-0.0981688
51434,0.000488281,-0.000244141,0.997803,-0.0334382,-0.137329,-0.0676513
51444,0.000244141,-0.000244141,0.998291,-0.0334382,0.198364,0.0239015
51454,0.000244141,0,0.997803,-0.0639558,0.167847,-0.0981688
51464,0.000244141,-0.000244141,0.99707,0.0581145,-0.0152588,0.054419
51474,0.000244141,0,0.99707,0.11915,-0.0762939,-0.0676513
51484,0,-0.000244141,0.99707,0.0581145,0.0762939,-0.00661612
51494,0.000244141,0,0.996826,0.210702,-0.0457764,0.0239015
51504,0,0.000244141,0.996338,-0.0334382,0.0457764,0.176489
51514,-0.000244141,0.000244141,0.996582,0.11915,-0.0152588,-0.0676513
51524,-0.000488281,-0.000244141,0.996582,0.027597,0.0762939,0.0849366
51534,0,0,0.996094,0.11915,0.0457764,0.0849366
51544,-0.000244141,0,0.996338,-0.0639558,-0.0152588,0.0239015
51554,0,-0.000488281,0.996338,0.027597,-0.0762939,0.268042
51564,0,-0.000488281,0.996826,-0.0944734,-0.0762939,0.054419
51574,-0.000244141,-0.000488281,0.997559,0.0886321,0.106812,-0.00661612
51584,0.000244141,-0.000488281,0.997559,0.11915,-0.0152588,-0.0676513
51594,0.000488281,-0.000244141,0.998047,-0.00292063,0.0762939,0.054419
51604,0.000732422,-0.000488281,0.997314,0.180185,-0.0762939,0.0239015
51614,0.000488281,-0.000244141,0.997559,-0.0639558,0.106812,0.0239015
51624,0.000488281,-0.000244141,0.99707,0.0581145,-0.0762939,-0.0676513
51634,0.000732422,-0.000488281,0.997559,0.24122,-0.0457764,-0.00661612
51644,0.000732422,-0.000488281,0.997803,0.027597,-0.0152588,0.145972
51654,0.000488281,-0.000488281,0.998047,-0.0639558,-0.0152588,0.176489
51664,0.000244141,-0.000732422,0.997314,-0.00292063,-0.198364,-0.0981688
51674,0,-0.000488281,0.996826,-0.0334382,-0.106812,-0.0981688
51684,0,-0.000244141,0.996826,0.0581145,0.0762939,0.115454
51694,0.000488281,0,0.996582,0.180185,-0.0762939,0.054419
51704,0.000488281,-0.000244141,0.996094,0.180185,0.0457764,0.176489
51714,0.000244141,0,0.996826,-0.0334382,-0.0457764,0.0239015
51724,0,0,0.996826,-0.0944734,-0.167847,0.0239015
51734,-0.000244141,0.000488281,0.996094,-0.0334382,-0.0152588,0.145972
51744,-0.000244141,0.000488281,0.996094,-0.0639558,0.0457764,-0.128686
51754,-0.000244141,0.000244141,0.996094,0.0581145,-0.0152588,0.0239015
51764,-0.000244141,0,0.996582,0.149667,0.0457764,0.176489
51774,-0.000244141,-0.000244141,0.996826,0.027597,-0.0762939,-0.00661612
51784,0,0,0.996338,0.11915,0.0152588,0.145972
51794,0.000244141,0.000244141,0.996338,0.027597,0.0457764,0.0849366
51804,0,-0.000244141,0.996826,0.0886321,-0.137329,-0.0371337
51814,0,0,0.996826,-0.00292063,-0.0457764,0.054419
51824,-0.000488281,0,0.996094,0.11915,-0.0152588,-0.128686
51834,-0.000244141,-0.000244141,0.996094,-0.0944734,-0.0152588,-0.00661612
51844,-0.000244141,-0.000244141,0.996582,0.149667,0.0457764,-0.0676513
51854,0,-0.000488281,0.99707,0.0886321,-0.0457764,0.054419
51864,-0.000244141,-0.000244141,0.99707,0.149667,0.137329,0.237525
51874,0,-0.000244141,0.997559,0.0581145,0.0152588,0.268042
51884,0,-0.000244141,0.997803,0.0581145,0.106812,0.145972
51894,0.000244141,-0.000244141,0.99707,0.0886321,0.0762939,-0.0676513
51904,0.000244141,-0.000732422,0.997314,-0.155509,0.106812,-0.0371337
51914,0.000488281,-0.000732422,0.998291,-0.0334382,0.0152588,-0.00661612
51924,0.000732422,-0.000976562,0.998047,-0.0639558,-0.106812,0.0849366
51934,0.000244141,-0.000732422,0.997803,0.11915,0.0762939,-0.0981688
51944,0,-0.000488281,0.997559,0.180185,0.106812,-0.00661612
51954,0.000244141,-0.000488281,0.99707,-0.0334382,-0.0152588,0.115454
51964,0.000244141,-0.000488281,0.996338,-0.0944734,0.0762939,0.0849366
51974,0.000488281,-0.000244141,0.996582,0.11915,0.0762939,0.054419
51984,0.000976562,0,0.997314,-0.0334382,0.167847,0.0239015
51994,0.000732422,0,0.99707,0.027597,0.0152588,0.0849366
52004,0.000488281,0,0.997314,0.0581145,-0.0457764,0.054419
52014,0.000488281,0,0.99707,0.0886321,-0.0457764,0.0849366
52024,0.000732422,0,0.99707,-0.155509,0.259399,-0.0371337
52034,0.000488281,-0.000244141,0.99707,0.0581145,0.0152588,0.054419
52044,0.000488281,-0.000244141,0.99707,0.027597,0.0152588,-0.0676513
52054,0.000732422,-0.000244141,0.99707,-0.0639558,-0.0457764,0.054419
52064,0.000732422,-0.000244141,0.996826,-0.0639558,-0.0152588,0.0849366
52074,0.000488281,-0.000488281,0.99707,-0.0334382,-0.137329,0.176489
52084,0.000976562,-0.000732422,0.997314,0.149667,0.0152588,-0.0676513
52094,0.000732422,-0.000732422,0.996582,-0.00292063,-0.0457764,0.0849366
52104,0.000976562,-0.000488281,0.996338,0.027597,0.0152588,0.054419
52114,0.000732422,-0.000488281,0.996338,-0.0944734,0.137329,0.0849366
52124,0.000488281,-0.000732422,0.997559,-0.0639558,0.0762939,0.115454
52134,0.000488281,-0.000732422,0.997559,-0.186026,-0.106812,-0.0676513
52144,0.000488281,-0.000732422,0.99707,0.24122,-0.0762939,0.0849366
52154,0,-0.000732422,0.99707,-0.00292063,0.0762939,-0.0981688
52164,0,-0.000488281,0.996582,-0.0334382,0.0457764,-0.0371337
52174,0,-0.000244141,0.996582,-0.0944734,-0.0457764,0.0239015
52184,0,-0.000244141,0.996582,-0.0944734,0.0457764,0.054419
52194,-0.000244141,-0.000488281,0.996582,0.24122,-0.0762939,0.0849366
52204,0,-0.000732422,0.996338,0.149667,-0.0762939,-0.00661612
52214,0,-0.000488281,0.996582,-0.00292063,-0.0152588,0.145972
52224,-0.000488281,-0.000244141,0.997314,0.11915,0.0457764,0.054419
52234,0,-0.000244141,0.997314,0.0886321,-0.0457764,-0.0676513
52244,0.000244141,-0.000244141,0.99707,0.0886321,0.0152588,0.0849366
52254,-0.000244141,0,0.997314,0.11915,-0.0152588,-0.0371337
52264,0.000244141,0,0.998291,0.0886321,-0.0762939,0.054419
52274,0.000244141,-0.000244141,0.998047,0.027597,0.0457764,-0.00661612
52284,0.000488281,-0.000244141,0.996826,0.0886321,0.106812,-0.0676513
52294,0.000488281,-0.000488281,0.997314,0.0581145,0.0152588,-0.0981688
52304,0,-0.000732422,0.997314,-0.00292063,0.0152588,-0.220239
52314,-0.000732422,-0.000488281,0.997559,-0.00292063,0.0762939,0.0239015
52324,-0.000732422,-0.000488281,0.997559,0.11915,0.106812,0.0239015
52334,-0.000976562,-0.000244141,0.997803,0.180185,-0.0152588,-0.0371337
52344,-0.000732422,-0.000244141,0.997803,-0.0334382,0.0762939,-0.128686
52354,-0.000732422,0,0.997559,0.027597,-0.106812,0.054419
52364,-0.000732422,0,0.99707,-0.00292063,-0.0457764,0.0239015
52374,-0.000488281,-0.000244141,0.99707,0.0581145,-0.0762939,0.054419
52384,0,-0.000244141,0.99707,-0.00292063,0.167847,0.0849366
52394,0,0,0.99707,-0.00292063,-0.0152588,-0.00661612
52404,0,-0.000244141,0.996826,0.0581145,-0.0762939,0.0239015
52414,-0.000244141,-0.000244141,0.997314,-0.0334382,-0.0152588,0.0239015
52424,0,0,0.996582,-0.0944734,0.0762939,-0.189722
52434,-0.000244141,0,0.996582,-0.0944734,-0.137329,0.054419
52444,0,-0.000244141,0.996582,-0.00292063,-0.0762939,-0.0981688
52454,-0.000488281,-0.000244141,0.996338,0.0581145,-0.0457764,0.0849366
52464,-0.000732422,-0.000244141,0.99585,-0.0334382,-0.0152588,0.0239015
52474,-0.000732422,-0.000244141,0.995605,-0.00292063,-0.137329,0.145972
52484,-0.000732422,0.000244141,0.995117,0.180185,0.0762939,0.176489
52494,-0.000488281,0.000244141,0.995361,0.149667,-0.0457764,-0.128686
52504,-0.000488281,0.000488281,0.996094,-0.00292063,-0.0457764,-0.0371337
52514,-0.000488281,0.000732422,0.996338,0.027597,-0.0457764,-0.0676513
52524,-0.000488281,0.000732422,0.996582,0.027597,-0.0457764,0.054419
52534,-0.000244141,0.000244141,0.996338,-0.124991,-0.0152588,0.115454
52544,-0.000244141,0.000244141,0.996338,-0.0334382,-0.0152588,-0.0676513
52554,-0.000488281,-0.000244141,0.996338,0.0886321,0.0762939,-0.128686
52564,-0.000488281,-0.000244141,0.996582,0.0886321,0.137329,-0.0371337
52574,-0.000488281,-0.000244141,0.996338,0.027597,0.0457764,0.054419
52584,-0.000244141,-0.000244141,0.996094,0.0886321,-0.0762939,0.0849366
52594,0,-0.000244141,0.996582,0.027597,0.0457764,0.0849366
52604,-0.000244141,-0.000244141,0.99707,-0.0944734,0.0152588,0.176489
52614,0,-0.000488281,0.997314,0.0886321,0.0152588,0.0239015
52624,0,-0.000488281,0.99707,0.0886321,0.0457764,-0.281274
52634,0.000488281,-0.000732422,0.997314,-0.0639558,0.0152588,0.145972
52644,0.000488281,-0.000976562,0.996826,0.0886321,-0.0457764,-0.159204
52654,0.000488281,-0.000488281,0.996826,0.0581145,-0.0457764,0.054419
52664,0,-0.000732422,0.996826,0.11915,-0.0457764,-0.0371337
52674,0,-0.000488281,0.996826,-0.00292063,0.0457764,-0.0676513
52684,0,-0.000732422,0.996826,-0.0944734,0.0152588,0.0239015
52694,0,-0.000488281,0.996338,-0.00292063,0.106812,0.0849366
52704,0,-0.000244141,0.996826,0.027597,0.0152588,0.0239015
52714,0.000244141,-0.000244141,0.996826,-0.0639558,0.0457764,-0.128686
52724,0.000244141,-0.000244141,0.996338,0.11915,0.0762939,0.0239015
52734,0,0,0.996582,0.027597,0.0762939,0.0239015
52744,0,-0.000732422,0.996582,0.0581145,0.167847,-0.00661612
52754,-0.000244141,-0.000732422,0.996338,0.0581145,-0.0762939,0.0849366
52764,-0.000244141,-0.000732422,0.996338,0.149667,0.106812,0.0849366
52774,0,-0.000732422,0.996338,0.11915,0.0457764,-0.00661612
52784,0,-0.000732422,0.996338,-0.0639558,0.0762939,-0.0981688
52794,-0.000244141,-0.000244141,0.996094,0.0581145,0.137329,0.115454
52804,0,-0.000244141,0.996094,-0.00292063,0.0457764,0.207007
52814,-0.000244141,0,0.996338,0.0886321,-0.0457764,-0.00661612
52824,0,0,0.996338,0.0581145,-0.106812,0.207007
52834,0,0.000244141,0.99585,-0.00292063,0.0762939,0.207007
52844,0.000244141,0,0.995605,0.027597,-0.0457764,0.0239015
52854,0.000488281,-0.000488281,0.995361,-0.0639558,0.137329,-0.00661612
52864,0.000244141,-0.000244141,0.99585,-0.0334382,0.0152588,0.0849366
52874,0,0,0.996338,-0.0639558,-0.167847,-0.0676513
52884,0,-0.000244141,0.996826,-0.0334382,-0.106812,-0.0676513
52894,0,-0.000488281,0.996826,-0.155509,-0.0457764,-0.0676513
52904,0,-0.000732422,0.996582,0.11915,0.0152588,0.176489
52914,-0.000732422,-0.000732422,0.996582,0.0886321,0.0152588,0.0849366
52924,-0.000488281,-0.000732422,0.996338,0.0886321,-0.137329,-0.00661612
52934,0,-0.000488281,0.996582,-0.00292063,0.0457764,-0.0371337
52944,0,-0.000488281,0.996338,-0.0944734,0.0762939,-0.0981688
52954,0,-0.000488281,0.996094,0.149667,0.167847,0.115454
52964,0,-0.000732422,0.996094,0.027597,0.0152588,-0.0676513
52974,-0.000244141,-0.000732422,0.99585,-0.0334382,-0.0762939,0.0239015
52984,-0.000244141,-0.000976562,0.996094,0.11915,0.0152588,-0.00661612
52994,-0.000244141,-0.000488281,0.99585,-0.0334382,-0.106812,0.054419
53004,0.000244141,-0.000732422,0.996094,0.027597,0.0457764,0.054419
53014,0.000244141,-0.000488281,0.99585,-0.00292063,0.0457764,0.0849366
53024,0.000244141,-0.000732422,0.996582,-0.0334382,-0.0152588,0.0849366
53034,0.000244141,-0.000732422,0.996582,-0.0944734,0.0457764,0.054419
53044,0,-0.000488281,0.99707,-0.0334382,0.0152588,0.115454
53054,0.000488281,-0.000244141,0.997314,0.027597,0.0457764,-0.0981688
53064,0.000244141,-0.000732422,0.99707,-0.0639558,0.0152588,-0.0676513
53074,0.000244141,-0.000488281,0.996826,0.149667,0.0152588,0.0849366
53084,0.000244141,-0.000488281,0.996582,0.11915,0.0457764,-0.00661612
53094,0.000244141,-0.000488281,0.99707,0.11915,-0.0152588,-0.0676513
53104,0.000244141,-0.000488281,0.99707,0.0581145,-0.0762939,-0.00661612
53114,0.000244141,-0.000732422,0.99707,0.027597,-0.0457764,-0.128686
53124,0.000488281,-0.000488281,0.996582,-0.216544,0.106812,0.145972
53134,0.000244141,-0.000244141,0.996582,-0.0639558,0.106812,-0.00661612
53144,0,-0.000488281,0.99707,0.027597,0.0457764,0.0239015
53154,-0.000244141,-0.000244141,0.996582,-0.0944734,-0.0762939,0.115454
53164,0,0,0.996582,-0.00292063,0.167847,-0.00661612
53174,0,0,0.996338,0.149667,0.0457764,0.0239015
53184,-0.000244141,-0.000488281,0.996338,0.027597,0.0152588,-0.0676513
53194,-0.000732422,-0.000244141,0.996094,0.149667,0.0762939,0.115454
53204,-0.000976562,-0.000244141,0.99585,-0.0944734,0.0762939,0.115454
53214,-0.000732422,0,0.99585,-0.0334382,0.106812,0.054419
53224,-0.000732422,0.000488281,0.996582,-0.0334382,-0.0457764,0.115454
53234,-0.000732422,0.000244141,0.996338,0.11915,-0.0457764,-0.128686
53244,-0.000488281,-0.000244141,0.996338,0.11915,-0.0152588,0.145972
53254,-0.000244141,0,0.99585,0.0581145,-0.0152588,0.207007
53264,0.000244141,0.000244141,0.995605,0.11915,0.0152588,0.0849366
53274,0.000244141,0.000488281,0.99585,0.0581145,0.0152588,0.0239015
53284,0.000488281,0.000244141,0.995605,0.0886321,0.0457764,0.145972
53294,0.000488281,0.000244141,0.995361,-0.0944734,0.106812,0.0849366
53304,0.000732422,0.000244141,0.996094,-0.0944734,0.106812,-0.0676513
53314,0.000488281,0.000244141,0.99585,-0.00292063,0.0762939,0.054419
53324,0.000732422,0.000244141,0.996094,0.11915,0.0152588,0.0239015
53334,0.000244141,0.000244141,0.996338,-0.0334382,0.0457764,-0.00661612
53344,0,0.000244141,0.996582,-0.0334382,0.0457764,-0.00661612
53354,0.000244141,-0.000244141,0.996094,0.11915,0.0457764,0.054419
53364,0,-0.000244141,0.996094,-0.186026,-0.0457764,0.176489
53374,0,-0.000244141,0.99707,0.11915,0.0457764,0.115454
53384,-0.000244141,-0.000732422,0.997559,-0.0639558,0.0457764,0.054419
53394,0,-0.000976562,0.998047,-0.0334382,0.106812,-0.00661612
53404,-0.000244141,-0.000244141,0.997314,-0.0334382,0.0762939,0.0849366
53414,0.000244141,-0.000488281,0.996826,-0.0334382,-0.106812,0.0849366
53424,0.000488281,-0.000244141,0.996582,-0.00292063,0.0457764,-0.189722
53434,0.000488281,0,0.996582,-0.155509,0.0152588,-0.0676513
53444,-0.000244141,-0.000488281,0.996826,0.0581145,-0.0152588,-0.342309
53454,-0.000488281,0,0.99707,0.0581145,-0.0762939,-0.220239
53464,-0.000488281,-0.000488281,0.996826,0.11915,0.0457764,0.207007
53474,-0.000244141,-0.000732422,0.996582,0.027597,0.106812,-0.0371337
53484,0.000244141,-0.000976562,0.996094,-0.0944734,-0.137329,0.0239015
53494,0.000244141,-0.000976562,0.996582,0.0886321,-0.0152588,0.054419
53504,0,-0.000732422,0.996826,-0.124991,-0.0152588,-0.0981688
53514,0.000244141,-0.000732422,0.996826,-0.00292063,0.106812,-0.0676513
53524,0.000488281,-0.000732422,0.996582,0.149667,0.0152588,-0.0981688
53534,0.000488281,-0.000732422,0.996338,0.24122,0.0152588,0.115454
53544,0,-0.000488281,0.995605,0.24122,-0.0152588,0.0849366
53554,0.000244141,-0.000488281,0.99585,0.180185,0.0762939,0.115454
53564,0.000244141,-0.000488281,0.996094,0.149667,0.0762939,-0.00661612
53574,0,-0.000244141,0.996338,-0.00292063,0.137329,0.115454
53584,0.000244141,-0.000244141,0.996094,0.027597,0.0457764,-0.0676513
53594,0.000244141,0,0.996094,0.027597,0.106812,0.115454
53604,0.000244141,-0.000488281,0.996338,0.027597,0.0457764,-0.00661612
53614,0,0,0.99707,-0.124991,-0.0457764,-0.220239
53624,0,-0.000244141,0.996582,0.0886321,0.106812,0.0849366
53634,0,-0.000244141,0.996582,-0.0639558,0.0762939,0.207007
53654,-0.000244141,-0.000244141,0.996094,0.11915,-0.0457764,0.145972
53664,-0.000488281,0,0.996094,-0.0639558,0.106812,0.0849366
53674,-0.000244141,0,0.996338,0.0581145,0.0457764,0.115454
53684,0,-0.000488281,0.99585,0.027597,0.106812,-0.00661612
53694,0,-0.000488281,0.996338,0.027597,0.0152588,0.115454
53704,-0.000244141,-0.000976562,0.996338,-0.155509,-0.0152588,-0.00661612
53714,0.000244141,-0.0012207,0.99585,0.0886321,0.0457764,0.0849366
53724,0.000488281,-0.000732422,0.996094,-0.155509,-0.0762939,0.176489
53734,0.000488281,-0.000732422,0.996338,-0.155509,-0.106812,-0.0981688
53744,-0.000244141,-0.000976562,0.995361,-0.0334382,0.0457764,0.145972
53754,-0.000488281,-0.000732422,0.996094,-0.0334382,0.167847,-0.0676513
53764,-0.000244141,-0.000244141,0.995361,0.027597,-0.0152588,0.0239015
53774,0,-0.000244141,0.99585,0.180185,0.0762939,-0.281274
53784,0,0,0.99585,0.0581145,0.137329,0.115454
53794,0,-0.000488281,0.996338,-0.00292063,0.0457764,-0.00661612
53804,0.000244141,-0.000488281,0.996338,0.271738,-0.0152588,-0.00661612
53814,0.000488281,-0.000976562,0.996338,0.027597,0.137329,-0.0371337
53824,0.000244141,-0.000976562,0.996338,0.0886321,0.106812,-0.0371337
53834,0,-0.000976562,0.996826,-0.00292063,-0.106812,-0.00661612
53844,0,-0.0012207,0.99707,-0.0944734,0.167847,0.115454
53854,-0.000244141,-0.000732422,0.996826,-0.00292063,0.0457764,-0.0371337
53864,-0.000244141,-0.000976562,0.997314,-0.124991,-0.0457764,-0.0981688
53874,-0.000244141,-0.000732422,0.997314,0.11915,-0.0152588,0.145972
53884,0,-0.000976562,0.997803,0.11915,0.0152588,-0.00661612
53894,0,-0.000976562,0.99707,0.027597,0.0152588,0.054419
53904,0.000244141,-0.000732422,0.996826,0.0581145,-0.106812,0.115454
53914,0.000488281,-0.000732422,0.997314,-0.0639558,0.0152588,0.176489
53924,0.000488281,-0.000976562,0.996338,0.0886321,0.0457764,0.0849366
53934,0.000732422,-0.000976562,0.996338,-0.00292063,0.167847,0.0239015
53944,0,-0.000976562,0.996826,-0.00292063,-0.0762939,-0.00661612
53954,0,-0.000976562,0.996338,-0.186026,-0.0762939,0.054419
53964,0,-0.000732422,0.99585,0.11915,0.0152588,-0.0371337
53974,0.000488281,-0.000732422,0.99707,0.0581145,-0.137329,0.207007
53984,0.000732422,-0.000732422,0.996338,0.11915,0.106812,-0.0371337
53994,0.000488281,0,0.996338,-0.0334382,-0.0762939,0.115454
54004,0.000488281,-0.000244141,0.996582,-0.0334382,-0.0152588,0.054419
54014,0.000488281,-0.000244141,0.996826,-0.124991,-0.0457764,-0.0676513
54024,0.000244141,-0.000244141,0.996094,-0.0944734,0.0762939,0.0239015
54034,0.000244141,0,0.996094,-0.00292063,-0.0457764,-0.00661612
54054,-0.000244141,0,0.996094,-0.00292063,0.0762939,0.145972
54064,0,-0.000244141,0.99585,0.027597,-0.0762939,-0.0371337
54074,0,-0.000244141,0.995361,-0.00292063,-0.106812,-0.00661612
54084,0.000244141,0,0.995117,0.11915,0.167847,0.0849366
54094,0.000244141,-0.000244141,0.995605,0.0886321,0.0152588,-0.0981688
54104,0.000488281,-0.000488281,0.995605,-0.124991,-0.0457764,0.0849366
54114,0.000488281,-0.000488281,0.995361,-0.0334382,-0.106812,-0.0371337
54124,0.000244141,-0.000488281,0.995605,0.24122,0.0457764,0.0239015
54134,0,-0.000488281,0.995117,0.180185,0.0762939,-0.220239
54144,-0.000488281,0,0.995361,0.11915,-0.0152588,0.145972
54154,0,-0.000244141,0.995117,0.027597,0.137329,0.0239015
54164,0,-0.000244141,0.996094,-0.00292063,-0.0457764,0.0239015
54174,0.000488281,0.000244141,0.996582,-0.155509,-0.167847,-0.0676513
54184,0.000244141,-0.000244141,0.996826,-0.0639558,0.0457764,-0.0371337
54194,0.000488281,0,0.997314,0.149667,-0.0152588,0.207007
54204,0.000488281,0.000244141,0.996826,0.0886321,0.0457764,0.0849366
54214,0.000244141,0,0.996582,0.0886321,0.106812,-0.0981688
54224,0,-0.000244141,0.996826,0.027597,0.0152588,0.115454
54234,0,-0.000244141,0.99707,-0.00292063,0.0457764,-0.00661612
54244,0,0,0.996826,-0.00292063,-0.0457764,0.0849366
54254,0,-0.000244141,0.99707,0.11915,0.0457764,-0.0676513
54264,0,-0.000244141,0.99707,0.027597,-0.0152588,0.0849366
54274,0.000244141,0.000244141,0.99707,0.027597,-0.106812,-0.0371337
54284,0.000244141,0.000244141,0.99707,0.0581145,-0.0762939,0.054419
54294,0,0,0.997314,0.027597,0.0152588,-0.0371337
54304,0,0.000244141,0.996826,-0.0944734,0.0457764,0.054419
54314,0.000244141,0.000732422,0.996826,-0.0334382,-0.0457764,-0.0981688
54324,0.000244141,0.000244141,0.996582,-0.0334382,0.0152588,0.054419
54334,0.000488281,0.000244141,0.99707,-0.0639558,0.0457764,-0.128686
54344,0.000732422,-0.000244141,0.99707,0.0886321,-0.0152588,0.115454
54354,0.000488281,0,0.996582,-0.00292063,-0.0152588,0.054419
54364,0.000488281,-0.000244141,0.996826,-0.0639558,-0.0152588,0.0849366
54374,0.000488281,-0.000244141,0.996826,0.027597,-0.0152588,0.0849366
54384,0.000244141,0.000244141,0.996338,-0.00292063,0.0457764,-0.128686
54394,0,0.000244141,0.996826,-0.0639558,0.106812,0.0239015
54404,0,0,0.996338,0.0581145,-0.0457764,0.115454
54414,-0.000244141,0,0.996582,0.0581145,-0.0762939,0.0239015
54424,0,-0.000244141,0.996338,0.0581145,-0.0457764,-0.0371337
54434,0.000244141,-0.000732422,0.996094,0.027597,0.0152588,0.115454
54444,0.000488281,-0.000732422,0.995361,0.0581145,-0.0762939,0.054419
54454,0,-0.000732422,0.995361,0.0886321,0.0762939,-0.0371337
54464,0,-0.000244141,0.994629,0.0581145,0.106812,-0.0676513
54474,0,-0.000488281,0.995117,-0.00292063,0.106812,-0.00661612
54484,0,0,0.995605,0.027597,0.137329,-0.0371337
54494,0,0,0.996094,0.0886321,-0.0152588,-0.0371337
54504,0.000244141,-0.000244141,0.996338,-0.0639558,0.0457764,0.145972
54514,0.000244141,-0.000244141,0.99585,-0.0639558,-0.0152588,0.0239015
54524,0.000244141,0,0.996338,0.0581145,0.0762939,-0.0371337
54534,0.000244141,-0.000244141,0.996338,-0.00292063,0.0152588,0.0849366
54544,0.000244141,-0.000244141,0.996582,0.0581145,0.0457764,-0.0981688
54554,0.000488281,-0.000488281,0.99585,0.11915,0.137329,0.237525
54564,0.000732422,-0.000488281,0.996338,-0.186026,0.0762939,0.0849366
54574,0.000488281,-0.000244141,0.996094,-0.00292063,0.0457764,-0.128686
54584,0.000244141,-0.000488281,0.995605,-0.124991,0.0457764,0.0239015
54594,0.000244141,-0.000244141,0.994873,0.180185,0.106812,-0.159204
54604,0.000488281,0,0.995117,0.0581145,-0.137329,-0.00661612
54614,-0.000244141,-0.000244141,0.994873,0.0581145,-0.0762939,0.0239015
54624,-0.000244141,-0.000244141,0.994629,-0.00292063,-0.0457764,-0.00661612
54634,-0.000488281,-0.000244141,0.994873,0.0581145,0.106812,0.0849366
54644,-0.000244141,-0.000732422,0.995117,0.027597,-0.0457764,-0.00661612
54654,-0.000488281,-0.000488281,0.99585,-0.00292063,-0.0762939,0.054419
54664,-0.000488281,-0.000488281,0.996094,0.027597,0.0152588,0.115454
54674,-0.000488281,-0.000244141,0.996094,0.027597,-0.0152588,-0.220239
54684,-0.000488281,-0.000488281,0.99585,-0.00292063,-0.106812,0.054419
54694,-0.000244141,-0.000244141,0.995361,0.149667,0.0152588,-0.128686
54704,-0.000244141,0,0.995605,0.0581145,0.0457764,0.0849366
54714,-0.000244141,-0.000244141,0.996338,0.0581145,0.0762939,0.176489
54724,0,-0.000488281,0.996582,-0.0334382,0.137329,0.0239015
54734,0,0,0.997314,0.0581145,-0.0152588,-0.0981688
54744,0.000244141,-0.000244141,0.997314,0.0886321,-0.106812,-0.0371337
54754,0,-0.000488281,0.997559,-0.124991,0.0152588,-0.0676513
54764,0,-0.000732422,0.997803,0.0581145,0.0152588,0.0239015
54774,-0.000244141,-0.000244141,0.99707,-0.0334382,0.0762939,-0.0371337
54784,-0.000488281,-0.000732422,0.99707,0.0886321,0.0152588,0.0239015
54794,-0.000488281,-0.000732422,0.997314,0.027597,-0.0152588,0.176489
54804,-0.000244141,-0.000732422,0.997559,0.0581145,-0.106812,-0.0981688
54814,0,-0.000732422,0.996826,0.11915,0.137329,0.145972
54824,0.000244141,-0.000732422,0.996582,0.149667,0.0152588,-0.00661612
54834,-0.000244141,-0.000488281,0.99707,-0.0639558,-0.0457764,-0.00661612
54844,0,-0.000488281,0.997559,-0.00292063,-0.106812,-0.00661612
54854,0,0,0.99707,0.11915,0.0457764,0.145972
54864,0,0,0.997314,0.0581145,-0.0457764,0.054419
54874,0,0.000244141,0.996582,-0.00292063,-0.0152588,-0.0981688
54884,-0.000244141,0.000244141,0.996582,0.0886321,-0.0152588,0.0849366
54894,-0.000244141,0,0.996582,0.24122,0.106812,-0.0371337
54904,0,0,0.99585,-0.0334382,0.137329,-0.00661612
54914,-0.000244141,0,0.99585,-0.00292063,-0.0762939,-0.0371337
54924,0.000244141,0,0.996094,0.0581145,0.0152588,0.054419
54934,0.000488281,-0.000244141,0.996582,-0.0944734,0.0152588,0.145972
