t,accx,accy,accz,gyrox,gyroy,gyroz
10699,-0.000244141,0,1.00098,-0.100046,-0.0274181,-0.0456572
10709,0,-0.000488281,1.00122,0.0220239,-0.0274181,0.015378
10719,0.000244141,-0.000488281,1.00122,-0.00849366,-0.118971,0.0764132
10729,0.000488281,-0.000488281,1.00098,0.0220239,-0.0579357,-0.106692
10739,0.000244141,-0.000244141,1.00098,0.0830591,-0.0274181,0.015378
10749,0.000732422,0,1.00073,-0.191599,0.186205,-0.0151396
10759,0.000732422,0,1.00049,0.0220239,-0.0274181,0.015378
10769,0.000732422,-0.000244141,1.00049,-0.100046,0.033617,0.0458956
10779,0.000732422,0,1.00024,-0.100046,0.033617,-0.0761747
10789,0.000732422,0.000244141,1.00098,0.113577,-0.0579357,0.015378
10799,0.000488281,0,1.00122,-0.130564,-0.0579357,-0.13721
10809,0.000488281,0.000244141,1.00122,-0.0390112,0.155687,0.106931
10819,0.000488281,-0.000244141,1.00122,-0.0695288,0.033617,0.106931
10829,0.000488281,-0.000244141,1.00098,-0.100046,-0.0884533,-0.0761747
10849,0.000488281,0,1.00073,-0.0695288,0.0641346,-0.0456572
10859,0.000244141,0.000244141,1.00098,-0.0390112,0.033617,-0.0151396
10869,0.000244141,0,1.00098,-0.130564,-0.0274181,0.0458956
10879,0.000244141,0,1.00122,-0.0390112,0.033617,-0.0151396
10889,0.000244141,0.000244141,1.00098,-0.0695288,-0.0579357,0.015378
10899,0,0.000244141,1,-0.0390112,0.0641346,-0.13721
10909,0,0.000244141,0.999756,-0.0390112,0.033617,-0.0151396
10919,0,-0.000244141,1.00024,0.0525415,-0.0274181,-0.0151396
10929,0.000244141,-0.000244141,1.00073,-0.00849366,-0.0579357,0.015378
10939,0.000244141,0,1.00098,-0.100046,-0.210524,-0.106692
10949,0.000244141,-0.000244141,1.00049,-0.0695288,-0.149488,0.106931
10969,-0.000488281,0,1.00122,-0.00849366,-0.0274181,0.0458956
10979,-0.000244141,-0.000244141,1.00146,0.0830591,-0.0274181,0.0458956
10989,-0.000244141,-0.000244141,1.00171,-0.00849366,-0.0274181,-0.228763
10999,-0.000488281,-0.000244141,1.00195,0.0220239,-0.210524,0.0458956
11009,-0.000732422,-0.000244141,1.00122,-0.0390112,-0.0579357,-0.0151396
11019,-0.000488281,0,1.00146,-0.130564,0.0641346,-0.0456572
11029,0,0,1.00098,-0.00849366,0.00309944,-0.0456572
11049,-0.000244141,-0.000732422,1.00146,0.0525415,0.033617,-0.106692
11059,-0.000488281,-0.000976562,1.00171,0.0220239,-0.0274181,-0.0151396
11069,-0.000244141,-0.000732422,1.00146,0.113577,-0.149488,-0.13721
11099,-0.000244141,-0.000488281,1.00073,-0.100046,0.00309944,-0.0456572
11109,0.000244141,0,1.00122,0.0525415,0.00309944,0.0764132
11119,0,0.000244141,1.00098,-0.0695288,-0.0274181,-0.0151396
11149,0,-0.000244141,1,0.0220239,-0.0274181,0.015378
11189,-0.000244141,-0.000732422,1.00049,-0.130564,-0.0274181,0.015378
11199,-0.000244141,-0.000488281,1.00049,0.0220239,0.0641346,-0.0456572
11209,0,0.000244141,1.00098,-0.00849366,0.0641346,-0.0456572
11219,0.000244141,0,1.00098,-0.130564,0.033617,-0.106692
11269,-0.000488281,-0.000732422,1.00171,-0.00849366,0.00309944,-0.0761747
11299,-0.000976562,-0.000732422,1.00195,-0.0390112,-0.149488,-0.0456572
11359,-0.000244141,0.000244141,1.00146,-0.0695288,0.0641346,0.0764132
11399,0,0,1.00146,0.0525415,0.033617,-0.0761747
11439,0.000244141,-0.000244141,1.00024,0.0220239,-0.0579357,0.106931
11449,-0.000244141,-0.000244141,1.00024,-0.00849366,0.0641346,0.0764132
11459,0.000244141,-0.000488281,1.00024,-0.00849366,-0.0884533,0.015378
11539,-0.000488281,-0.000488281,1.00024,0.0220239,0.155687,0.0764132
11579,-0.000732422,-0.000732422,1.00024,-0.0390112,0.033617,-0.13721
11609,-0.000488281,0,1.00049,0.0220239,0.033617,-0.106692
11619,-0.000732422,-0.000244141,1.00098,-0.130564,-0.0884533,0.0458956
11669,-0.000732422,-0.000488281,1.00195,-0.0390112,0.0641346,-0.167727
11689,-0.000244141,-0.000488281,1.00122,0.0525415,0.186205,-0.106692
11709,0,0,1.00195,0.0830591,0.0641346,0.106931
11739,0,-0.000488281,1.00146,-0.0390112,0.0641346,0.0458956
11789,0,-0.000732422,1.00122,0.0525415,-0.0884533,0.137448
11799,0,-0.000732422,1.00171,0.0525415,-0.118971,-0.106692
11809,-0.000244141,-0.000488281,1.00195,0.144094,-0.0274181,-0.0761747
11819,0,-0.000244141,1.00195,0.0220239,0.00309944,-0.0151396
11849,-0.000244141,0,1.00195,0.0830591,0.033617,0.015378
11859,-0.000488281,0,1.00098,-0.100046,-0.0274181,0.015378
11869,-0.000244141,-0.000244141,1.00146,0.0830591,0.00309944,-0.0761747
11879,-0.000488281,0,1.00098,0.113577,0.033617,0.137448
11919,0,0.000244141,1.00122,0.0220239,-0.0274181,0.137448
11929,0,-0.000488281,1.00122,-0.0390112,0.12517,0.015378
11959,0.000244141,-0.000244141,1.00073,0.0525415,0.0641346,0.0458956
12019,0,0,1.00024,-0.100046,0.033617,-0.13721
12029,0,0,1.00073,0.0830591,-0.0274181,0.0458956
12049,0,-0.000244141,1,-0.0695288,0.0641346,0.167966
12069,-0.000488281,-0.000732422,1,-0.130564,0.12517,-0.0456572
12079,-0.000244141,-0.000976562,1.00024,0.144094,-0.0274181,0.167966
12089,-0.000488281,-0.000732422,1,0.0830591,-0.0274181,-0.0151396
12109,-0.000244141,-0.000488281,1.00049,0.0525415,-0.0579357,0.015378
12119,-0.000244141,-0.000244141,1.00073,-0.0695288,0.033617,-0.0761747
12129,-0.000244141,-0.000244141,1.00024,-0.00849366,0.033617,-0.0151396
12139,-0.000244141,0,1,0.0220239,0.00309944,0.015378
12149,-0.000244141,-0.000244141,0.999512,-0.00849366,0.00309944,0.106931
12159,-0.000488281,-0.000488281,1.00049,-0.0390112,0.0946522,-0.0151396
12169,-0.000488281,0.000244141,1.00049,-0.0390112,-0.0579357,0.0458956
12179,0,0.000488281,1.00073,0.0525415,-0.0274181,0.0764132
12189,-0.000244141,0,1.00122,-0.100046,0.0946522,0.015378
12199,-0.000244141,0.000244141,1.00122,0.0830591,0.00309944,-0.0761747
12209,-0.000732422,0,1.00098,-0.130564,-0.0579357,0.0458956
12219,-0.000244141,0,1.00049,0.0830591,-0.118971,-0.106692
12229,0,-0.000244141,1.00024,0.0220239,-0.0274181,-0.0761747
12239,0,-0.000244141,1.00073,-0.0390112,0.033617,-0.0151396
12249,0,0,1.00073,0.0220239,-0.0579357,-0.0761747
12259,-0.000244141,0.000244141,1.00073,-0.0695288,0.033617,0.106931
12269,0,0,1.00073,0.0525415,0.0641346,-0.198245
12279,0.000244141,-0.000244141,1,-0.00849366,-0.0274181,0.015378
12289,0,-0.000732422,0.999756,0.0525415,-0.0884533,-0.0456572
12299,-0.000244141,-0.000732422,1.00024,-0.00849366,0.155687,0.0458956
12309,-0.000488281,-0.000732422,0.999756,0.0220239,0.12517,-0.0151396
12319,-0.000488281,-0.000976562,1.00024,0.0830591,0.00309944,-0.0761747
12329,0,-0.000732422,0.999756,-0.130564,0.00309944,0.0458956
12339,0.000244141,-0.000732422,1.00024,-0.0695288,-0.118971,0.0458956
12349,0.000732422,-0.000244141,1,-0.100046,0.0641346,-0.0151396
12359,0.000244141,-0.000732422,1.00024,-0.0695288,0.0946522,-0.0151396
12369,0,-0.000732422,1.00024,-0.0695288,0.033617,-0.0456572
12379,0,-0.000488281,0.999756,-0.100046,0.155687,-0.0151396
12389,-0.000244141,-0.000244141,1,-0.0695288,0.033617,-0.106692
12399,0,-0.000488281,0.999268,-0.00849366,0.0946522,0.0764132
12409,-0.000244141,-0.000244141,1,0.0830591,-0.0274181,0.0764132
12419,-0.000244141,-0.000488281,1.00024,-0.00849366,-0.241041,0.0458956
12429,-0.000488281,-0.000488281,1.00122,0.0220239,0.00309944,-0.0151396
12439,-0.000488281,-0.000244141,1.00049,-0.00849366,-0.0274181,-0.0151396
12449,-0.000488281,-0.000488281,1.00049,-0.0695288,-0.0274181,0.0764132
12459,-0.000244141,-0.000732422,1.00098,-0.0390112,0.033617,0.015378
12469,-0.000244141,-0.000488281,1.00122,0.0220239,-0.0274181,0.015378
12479,-0.000244141,-0.000732422,1.00122,-0.00849366,-0.0579357,-0.0151396
12489,-0.000244141,-0.000732422,1.00122,-0.0695288,0.0946522,-0.106692
12499,0,-0.000244141,1.00171,-0.130564,-0.118971,-0.0151396
12509,0,-0.000244141,1.00146,-0.0695288,0.0946522,0.015378
12519,-0.000244141,0,1.00122,-0.0390112,-0.118971,-0.0456572
12539,-0.000488281,0,1.00098,-0.00849366,-0.0579357,0.0764132
12559,-0.000244141,-0.000244141,1.00146,-0.00849366,-0.0274181,0.0764132
12579,0.000244141,-0.000488281,1.00073,0.205129,-0.0579357,-0.0151396
12589,0,-0.000244141,1.00073,0.0220239,0.033617,0.015378
12599,0.000244141,-0.000244141,1.00024,-0.0390112,-0.0274181,0.106931
12609,0,0,1,0.0830591,0.00309944,0.137448
12619,0.000244141,-0.000244141,1.00024,-0.0390112,-0.0884533,-0.0761747
12629,0.000488281,-0.000488281,1,-0.0390112,-0.0884533,-0.106692
12649,0,-0.000488281,0.999756,-0.00849366,0.033617,-0.0456572
12679,0,-0.0012207,1.00024,-0.0390112,0.0946522,0.137448
12709,-0.000488281,-0.000732422,1.00049,0.0830591,0.033617,0.0458956
12759,0,-0.000488281,1.00146,-0.161082,0.033617,-0.0761747
12789,-0.000244141,-0.000488281,1.00146,0.0525415,-0.0274181,-0.0456572
12799,0,-0.000488281,1.00146,0.0525415,-0.118971,-0.106692
12849,0.000488281,-0.000244141,1.00049,-0.130564,0.12517,-0.167727
12899,-0.000244141,0,1,-0.00849366,0.033617,0.0764132
12919,-0.000488281,0.000244141,0.999512,0.113577,0.12517,0.015378
12989,0,-0.000244141,1.00049,-0.0390112,0.033617,0.0764132
13049,-0.0012207,-0.000488281,1.00073,0.113577,0.033617,-0.0456572
13069,-0.0012207,-0.000244141,1.00073,-0.0390112,0.0641346,0.015378
13099,-0.000488281,-0.000488281,1.00073,0.0220239,0.00309944,0.137448
13109,-0.000488281,-0.000244141,1.00049,-0.0695288,0.12517,-0.106692
13159,0,-0.000244141,1.00024,0.113577,0.0946522,0.015378
13179,-0.000488281,-0.000244141,1.00146,0.0220239,-0.149488,-0.0761747
13199,-0.000732422,-0.000244141,1.00122,-0.0390112,0.216722,-0.228763
13219,-0.000732422,0.000244141,1.00049,0.144094,0.00309944,0.0764132
13229,-0.000732422,0.000244141,1.00073,-0.0390112,0.12517,-0.0456572
13259,-0.000244141,0,1.00098,-0.00849366,-0.0274181,0.015378
13279,0,0.000244141,1.00098,0.113577,-0.0274181,-0.13721
13309,-0.000732422,0.000488281,1.00073,-0.0390112,-0.118971,-0.0761747
13319,-0.000732422,0,1.00049,-0.00849366,0.033617,0.0764132
13329,-0.000976562,-0.000244141,1,-0.0390112,0.00309944,0.0458956
13379,-0.000488281,-0.000732422,1.00098,0.0830591,-0.0274181,0.0458956
13399,0,-0.000488281,1.00146,-0.191599,0.033617,-0.0456572
13429,0.000244141,-0.000244141,1.00171,0.0525415,-0.0274181,0.0458956
13439,-0.000244141,0.000488281,1.00146,-0.0390112,0.0641346,-0.0761747
13459,-0.000488281,-0.000244141,1.00146,-0.0390112,-0.0579357,0.015378
13469,-0.000244141,-0.000488281,1.00146,-0.100046,0.00309944,0.015378
13489,-0.000488281,-0.000488281,1.00073,-0.0695288,-0.0274181,0.015378
13499,-0.000488281,0,1.00024,-0.100046,0.155687,-0.0456572
13509,0,-0.000244141,1,0.0525415,-0.180006,-0.0151396
13519,0,-0.000244141,1.00024,-0.00849366,0.0641346,-0.0456572
13529,-0.000244141,0,1.00073,0.0220239,0.0946522,-0.0456572
13539,-0.000244141,-0.000244141,1.00024,0.174612,-0.210524,0.0764132
13589,0,0,1,-0.100046,-0.0884533,-0.0761747
13609,-0.000976562,-0.000488281,0.999756,0.0830591,-0.0579357,0.0458956
13629,-0.000488281,-0.000488281,1.00024,0.0220239,0.12517,-0.0456572
13639,-0.000732422,-0.000244141,1.00024,-0.00849366,0.0641346,0.167966
13649,-0.000488281,-0.000488281,1.00024,0.0525415,-0.0884533,0.137448
13659,-0.000488281,-0.000488281,1.00049,-0.0390112,0.033617,0.015378
13669,-0.000732422,-0.000488281,1.00073,-0.0390112,-0.0274181,0.015378
13679,-0.000732422,-0.000244141,1.00024,-0.0695288,0.00309944,0.015378
13689,-0.000732422,-0.000488281,1.00049,0.113577,0.00309944,-0.0151396
13709,-0.000732422,-0.000488281,1.00098,-0.0695288,0.033617,-0.0761747
13719,-0.000976562,-0.000244141,1.00146,-0.0695288,0.0946522,-0.0151396
13729,-0.000976562,0,1.00122,-0.0695288,0.0641346,-0.0761747
13739,-0.000732422,0,1.00098,-0.130564,0.0641346,-0.106692
13749,-0.000488281,-0.000244141,1.00146,0.0830591,0.00309944,0.0458956
13759,-0.000732422,-0.000244141,1.00146,-0.130564,0.0641346,-0.0761747
13769,-0.000488281,-0.000244141,1.0022,-0.00849366,0.12517,0.015378
13779,-0.000488281,-0.000244141,1.00195,-0.0695288,0.0641346,-0.0151396
13789,-0.000488281,-0.000488281,1.00171,-0.0390112,-0.0274181,0.0458956
13799,-0.000488281,-0.000732422,1.00171,0.144094,0.12517,-0.106692
13809,-0.000488281,-0.000976562,1.00171,0.113577,0.033617,0.0764132
13819,-0.000488281,-0.000732422,1.00195,-0.161082,-0.0274181,-0.0151396
13839,0,-0.000732422,1.00098,0.0830591,-0.0579357,0.015378
13849,0,-0.000244141,1.00073,-0.0390112,0.033617,-0.106692
13859,0,0,1.00049,-0.100046,0.033617,-0.0456572
13869,-0.000244141,-0.000244141,1.00024,0.0525415,-0.180006,-0.0151396
13879,-0.000244141,0,1,-0.00849366,0.0641346,0.167966
13889,-0.000244141,-0.000244141,1,-0.0390112,-0.118971,0.0764132
13899,-0.000244141,-0.000732422,1.00049,-0.0695288,0.033617,0.106931
13909,-0.000488281,-0.000488281,1.00024,-0.0390112,-0.118971,0.198483
13919,-0.000244141,-0.000488281,1.00024,-0.100046,0.12517,0.0458956
13929,0.000244141,-0.000244141,1.00024,0.0220239,0.0946522,-0.0151396
13939,-0.000244141,-0.000488281,1.00049,0.0830591,0.0946522,-0.0761747
13959,-0.000488281,-0.000244141,1.00049,-0.0390112,-0.0274181,-0.0151396
13969,-0.000976562,-0.000244141,1.00049,-0.00849366,0.00309944,0.0764132
13979,-0.000488281,-0.000244141,1,0.113577,0.00309944,-0.0761747
13989,-0.000488281,-0.000244141,0.999756,-0.0695288,0.0641346,-0.0456572
13999,-0.000732422,0,1.00024,-0.0390112,0.0641346,-0.0151396
14009,-0.000976562,-0.000244141,1.00024,-0.00849366,-0.118971,0.0458956
14019,-0.000976562,-0.000488281,1,-0.130564,-0.0274181,0.0458956
14029,-0.00146484,0,1,-0.100046,0.0641346,0.0764132
14039,-0.00146484,-0.000488281,0.999756,-0.100046,0.00309944,-0.0151396
14049,-0.0012207,-0.000244141,0.999756,-0.0390112,0.033617,0.015378
14059,-0.000732422,0,0.999756,0.0830591,-0.180006,-0.13721
14069,-0.000488281,0.000244141,1,-0.100046,0.155687,-0.0151396
14079,-0.000488281,0,1.00073,0.0830591,0.00309944,-0.0456572
14099,-0.000976562,-0.000244141,1.00146,0.0525415,-0.0274181,-0.106692
14109,-0.0012207,0,1.00098,-0.0695288,0.033617,0.0458956
14119,-0.000732422,0,1.00146,0.0220239,0.00309944,0.106931
14139,-0.000244141,0,1.00098,-0.0390112,0.155687,0.0764132
14149,-0.000244141,-0.000244141,1.00098,0.0220239,-0.0274181,-0.0761747
14169,-0.000244141,0.000244141,1.00098,0.0220239,-0.180006,0.0458956
14179,0,0.000244141,1.00146,0.0220239,-0.149488,0.106931
14189,0,0.000244141,1.00098,-0.0390112,0.0946522,0.015378
14199,0,0.000488281,1.00073,0.0220239,-0.0274181,-0.0456572
14209,-0.000488281,0.000244141,1.00073,-0.00849366,-0.118971,-0.0151396
14229,0.000244141,0,1.00049,-0.0695288,0.033617,-0.0151396
14249,0,0.000244141,1.00122,-0.0695288,0.033617,-0.0761747
14329,-0.000244141,0.000488281,1.00098,-0.130564,0.0946522,0.0764132
14349,-0.000244141,0.000488281,1.00098,0.0525415,-0.0579357,-0.13721
14359,-0.000732422,0.000488281,1.00146,0.0220239,0.0946522,-0.0761747
14429,-0.000244141,-0.000244141,1.00122,0.0525415,0.0946522,-0.13721
14459,-0.000488281,-0.000488281,1.00195,-0.0390112,0.0946522,0.015378
14489,0,-0.000244141,1.00195,-0.0390112,0.0641346,-0.106692
14609,-0.000244141,0,1.00024,-0.0390112,0.0641346,0.0458956
14639,0,-0.000244141,1.00024,0.0220239,0.00309944,0.167966
14649,0.000488281,0.000244141,1.00098,0.0525415,0.0946522,-0.0456572
14679,-0.000488281,0,1.00024,0.0525415,-0.0579357,-0.167727
14709,-0.000244141,0,1.00049,-0.0695288,-0.0274181,-0.0151396
14759,0,-0.000244141,1.00073,-0.100046,0.033617,-0.0761747
14789,-0.000244141,-0.000488281,1.00073,-0.0390112,-0.0274181,0.0458956
14819,-0.000488281,0,1,0.113577,-0.0579357,-0.0151396
14839,0,0.000244141,0.999756,0.0220239,0.12517,-0.0151396
14849,-0.000488281,-0.000244141,1.00024,-0.0695288,-0.0579357,0.015378
14869,-0.000488281,-0.000488281,1.00024,0.113577,0.0946522,0.0458956
14889,-0.000244141,-0.000244141,1.00049,-0.0695288,0.186205,-0.0151396
14899,-0.000244141,-0.000244141,1.00073,-0.0695288,0.12517,-0.106692
14909,-0.000488281,-0.000488281,1.00024,0.0525415,0.0641346,-0.0151396
14919,-0.000488281,-0.000244141,1.00049,-0.00849366,-0.0579357,-0.0761747
14939,-0.000488281,0,1.00049,0.144094,0.00309944,0.106931
14949,-0.000244141,0,1.00024,0.0525415,0.033617,-0.0761747
14979,0.000244141,0,1.00049,0.0525415,0.033617,-0.0151396
15009,0.000732422,0,1.00024,-0.00849366,0.155687,0.0764132
15019,0.000976562,0.000244141,1.00122,-0.130564,0.0946522,-0.0761747
15029,0.000488281,-0.000488281,1.00122,-0.100046,-0.241041,-0.0761747
15039,0.000244141,-0.000244141,1.00122,-0.0390112,0.0641346,-0.0151396
15059,0.000244141,-0.000488281,1.00073,0.0525415,-0.0579357,0.015378
15079,-0.000244141,-0.000244141,1.00171,-0.130564,-0.0579357,0.106931
15099,-0.000488281,-0.000244141,1.00195,0.0830591,-0.0884533,-0.106692
15119,-0.000488281,0,1.00146,-0.0390112,0.0946522,0.0764132
15139,-0.000244141,0,1.00098,0.113577,0.033617,0.0764132
15149,-0.000488281,0,1.00098,-0.0390112,0.186205,-0.0151396
15169,0,-0.000488281,1.00098,0.0220239,-0.0579357,0.106931
15179,0,-0.000488281,1.00073,0.0525415,0.00309944,-0.0456572
15189,0,-0.000244141,1.00073,0.0220239,0.0641346,-0.106692
15209,-0.000244141,0,1.00098,0.0830591,-0.0579357,0.0764132
15229,-0.000488281,-0.000244141,1,-0.0695288,0.12517,-0.0151396
15239,-0.000244141,0,1.00049,-0.0695288,-0.118971,0.0458956
15249,0,0,1.00024,-0.00849366,-0.0274181,-0.0456572
15259,-0.000244141,0,1,-0.0695288,-0.0579357,-0.0151396
15279,-0.000244141,-0.000488281,1.00049,-0.0695288,-0.0579357,0.0458956
15289,-0.000488281,-0.000488281,1.00073,-0.0390112,0.033617,-0.0761747
15299,-0.000732422,-0.000732422,1.00073,0.0220239,0.00309944,-0.106692
15309,-0.000976562,-0.000732422,1.00122,-0.0695288,-0.0274181,-0.106692
15319,-0.000976562,-0.000732422,1.00098,0.113577,-0.0274181,-0.0151396
15329,-0.0012207,-0.000732422,1.00049,-0.00849366,0.0641346,0.137448
15339,-0.000732422,-0.000732422,1.00049,-0.130564,0.12517,-0.0761747
15349,-0.000732422,-0.000244141,1,-0.100046,-0.118971,-0.0151396
15359,-0.000488281,-0.000244141,1.00049,0.113577,0.00309944,0.015378
15369,0.000244141,0,1.00049,-0.00849366,0.033617,0.015378
15379,0,0,1.00024,0.0525415,-0.149488,-0.0151396
15389,0,0,1.00024,-0.100046,0.033617,0.015378
15399,0,0.000244141,1,0.0525415,0.00309944,0.015378
15409,-0.000244141,0.000244141,1.00024,0.0830591,0.033617,-0.106692
15419,-0.000244141,0,0.999756,-0.100046,0.0946522,0.0458956
15429,-0.000488281,0,0.999512,-0.0695288,0.0641346,-0.0456572
15439,-0.000732422,0,0.999268,-0.0390112,0.0641346,-0.0761747
15449,-0.000732422,0,0.999756,-0.0390112,0.0946522,0.0764132
15459,-0.000488281,0,0.999756,-0.130564,0.155687,0.0458956
15479,-0.000244141,0.000244141,1.00049,-0.100046,-0.0274181,-0.0151396
15489,-0.000244141,0.000244141,1.00049,0.113577,0.0946522,-0.0761747
15509,0,0.000244141,1.00049,-0.100046,-0.0579357,-0.0456572
15519,0,0,1.00024,0.0830591,-0.0884533,0.015378
15529,0,0,1.00024,0.0220239,0.00309944,-0.0456572
15539,-0.000244141,0,1.00073,-0.130564,0.00309944,0.015378
15549,0,0.000244141,1.00049,0.0220239,-0.0274181,-0.0151396
15559,0.000244141,0.000244141,1.00073,-0.0695288,-0.0884533,0.0458956
15569,0,-0.000244141,1.00073,-0.100046,-0.0579357,-0.106692
15579,0.000244141,-0.000244141,1.00098,-0.100046,0.155687,-0.0456572
15589,0.000244141,-0.000244141,1.00073,-0.0695288,-0.0579357,0.106931
15599,0,0,1.00024,0.0830591,0.00309944,0.015378
15609,0,0.000244141,0.999756,0.0220239,-0.118971,0.0458956
15619,-0.000244141,0,1.00024,-0.0695288,-0.0579357,0.0458956
15629,-0.000732422,0,1.00049,0.0220239,0.00309944,-0.0151396
15639,-0.000488281,-0.000244141,1.00049,0.0830591,0.0946522,-0.0456572
15659,0,-0.000976562,1.00049,-0.0390112,0.033617,-0.0456572
15669,0,-0.000244141,0.999268,-0.0695288,0.033617,-0.0456572
15689,-0.000732422,0,1.00024,-0.0695288,0.155687,-0.13721
15709,-0.000244141,-0.000244141,1.00098,-0.00849366,0.0641346,0.137448
15719,-0.000244141,-0.000244141,1.00073,-0.00849366,0.186205,0.015378
15739,-0.000244141,-0.000244141,1.00122,-0.00849366,0.033617,0.0458956
15749,-0.000244141,-0.000244141,1.00171,0.0525415,-0.0579357,0.0458956
15769,-0.000732422,-0.000244141,1.00073,-0.100046,0.033617,0.015378
15779,-0.000488281,-0.000488281,1.00024,0.0220239,-0.180006,-0.0151396
15879,0.000732422,0.000488281,1.00024,0.0830591,0.033617,-0.0151396
15899,0.000488281,0.000244141,1,-0.00849366,0.0946522,0.0764132
15909,0.000488281,0,0.999512,0.0525415,0.0946522,0.015378
15919,0,0,0.999512,-0.0695288,-0.0884533,-0.0456572
15929,-0.000488281,0.000244141,0.999512,-0.130564,0.0641346,0.0458956
15939,-0.000488281,0.000488281,1.00024,0.0220239,0.033617,0.015378
15999,-0.000732422,0.000244141,0.999268,-0.00849366,0.0641346,0.0458956
16059,-0.000488281,-0.000488281,1,-0.0390112,-0.0274181,-0.0761747
16079,-0.000244141,-0.000732422,0.999756,0.0830591,-0.0579357,0.015378
16119,0.000488281,0,1.00073,-0.00849366,-0.0884533,0.0458956
16139,0,0,1.00073,-0.130564,0.033617,0.015378
16169,0.000244141,0,1.00073,-0.00849366,-0.0579357,-0.0761747
16179,0.000244141,-0.000244141,1.00098,-0.0390112,0.216722,0.0458956
16199,0,0,1.00098,-0.0695288,-0.0274181,-0.0151396
16229,0,-0.000244141,1.00146,-0.00849366,0.00309944,0.106931
16239,-0.000488281,-0.000244141,1.00098,-0.130564,0.12517,0.198483
16249,-0.000488281,-0.000244141,1.00122,-0.00849366,-0.0274181,-0.0456572
16289,-0.000976562,0,1.00146,-0.130564,0.0946522,-0.0456572
16299,-0.000732422,0.000244141,1.00122,-0.0695288,-0.0274181,-0.0456572
16309,-0.000488281,0,1.00073,-0.0695288,0.0946522,-0.106692
16319,-0.000244141,0.000244141,1.00073,-0.0390112,0.00309944,0.0458956
16349,-0.000244141,-0.000244141,1.00049,0.0830591,-0.0579357,0.0458956
16359,-0.000244141,-0.000244141,1.00024,0.0220239,0.0641346,-0.167727
16469,-0.000488281,-0.000244141,1.00049,0.113577,-0.118971,-0.0761747
16479,-0.000488281,0.000244141,1.00024,-0.161082,0.12517,0.0458956
16489,-0.000244141,0,1.00049,0.113577,-0.0274181,-0.0761747
16499,0,0,1,-0.100046,-0.0579357,0.0458956
16509,-0.000244141,-0.000244141,1.00073,-0.00849366,-0.180006,-0.0456572
16529,0,-0.000244141,1.00146,-0.00849366,0.12517,-0.0151396
16539,0,-0.000244141,1.00171,0.113577,0.155687,0.015378
16559,0.000244141,-0.000244141,1.00098,-0.0390112,0.0946522,0.137448
16569,-0.000244141,-0.000244141,1.00122,0.0525415,0.033617,0.015378
16599,0.000244141,0.000488281,1,0.0220239,-0.149488,0.0458956
16609,0.000488281,0,1.00049,-0.0390112,-0.0274181,0.0764132
16619,0.000244141,-0.000244141,1.00024,0.0525415,0.033617,-0.0151396
16629,0.000244141,-0.000244141,1,-0.0390112,0.0641346,0.167966
16639,0,-0.000244141,1.00049,-0.0695288,0.00309944,-0.0151396
16649,-0.000244141,-0.000732422,1.00098,-0.0695288,0.00309944,-0.0456572
16659,-0.000244141,-0.000488281,1.00024,-0.161082,0.12517,0.0458956
16669,0,-0.000488281,1.00024,0.144094,0.12517,-0.167727
16679,0.000488281,-0.000488281,1.00049,0.113577,-0.0884533,-0.0151396
16689,0.000488281,-0.000488281,1.00024,-0.161082,0.00309944,-0.0456572
16699,0.000244141,-0.000244141,1.00049,-0.0390112,-0.0274181,0.106931
16719,0,-0.000732422,1.00073,-0.00849366,0.0946522,0.0764132
16729,0,-0.000976562,1.00073,-0.100046,0.0946522,-0.0456572
16749,-0.000488281,-0.000732422,1.00073,-0.130564,0.033617,-0.0151396
16759,-0.000488281,-0.000488281,1.00049,0.0525415,-0.0579357,-0.0151396
16769,-0.000488281,-0.000732422,1,0.0830591,-0.0579357,0.0458956
16779,-0.000488281,-0.000976562,1.00024,0.0525415,-0.0274181,0.0764132
16789,-0.000244141,-0.000732422,1.00049,0.0525415,-0.118971,0.0458956
16799,-0.000244141,-0.000976562,1.00122,-0.0390112,-0.0884533,0.015378
16809,-0.000244141,-0.000488281,1.00049,-0.0390112,0.0946522,-0.0456572
16829,-0.000244141,-0.000488281,1.00073,0.113577,-0.0579357,0.015378
16839,-0.000488281,-0.000244141,1.00073,0.0830591,-0.0884533,0.015378
16859,-0.000488281,-0.000488281,1.00049,-0.00849366,-0.0274181,0.0458956
16869,0,-0.000244141,1.00098,0.0220239,-0.149488,0.0458956
16879,-0.000244141,0,1.00098,-0.00849366,0.033617,-0.0151396
16889,-0.000244141,0,1.00073,0.0220239,0.00309944,-0.167727
16899,-0.000488281,0,1.00122,0.0525415,0.033617,-0.0151396
16909,-0.000488281,-0.000244141,1.00073,0.0525415,0.00309944,0.015378
16919,-0.000244141,0,1.00098,-0.00849366,-0.0274181,-0.0151396
16929,-0.000488281,0,1.00146,-0.0695288,0.0946522,-0.0456572
16939,-0.000732422,0.000244141,1.00146,0.0525415,-0.0274181,-0.0151396
16949,-0.0012207,0.000244141,1.00171,-0.00849366,-0.0274181,-0.0151396
16959,-0.0012207,-0.000244141,1.00195,0.0220239,0.00309944,0.0764132
16969,-0.000732422,0,1.00195,-0.0695288,0.033617,-0.106692
16979,-0.000488281,0,1.00195,0.113577,0.00309944,0.137448
16989,-0.000488281,0,1.00171,-0.00849366,0.033617,-0.0456572
16999,-0.000488281,0,1.00146,-0.100046,0.216722,0.0458956
17009,-0.000244141,0.000244141,1.00098,0.0525415,-0.0579357,0.015378
17019,-0.000488281,0,1.00122,0.0220239,0.033617,-0.0151396
17029,-0.000244141,0,1.00122,-0.00849366,-0.0884533,0.015378
17039,-0.000244141,-0.000244141,1.00049,-0.0695288,0.033617,-0.0151396
17049,-0.000244141,0,1.00098,0.0830591,0.0641346,0.0764132
17069,-0.000488281,-0.000488281,1.00146,-0.130564,0.24724,-0.0456572
17079,0,0,1.00122,-0.0390112,0.033617,-0.167727
17109,0.000244141,-0.000244141,1.00073,-0.0390112,-0.0579357,0.0458956
17119,-0.000244141,0,1.00073,-0.0695288,0.033617,0.015378
17129,-0.000244141,-0.000244141,1.00098,-0.130564,0.00309944,-0.0151396
17139,0,-0.000488281,1.00122,-0.130564,-0.0274181,0.106931
17149,0,0,1.00073,0.0525415,0.00309944,-0.106692
17159,-0.000244141,0,1.00073,-0.100046,-0.0274181,0.167966
17169,-0.000244141,-0.000244141,1.00049,-0.0390112,0.0946522,0.0458956
17179,-0.000488281,-0.000488281,1.00024,-0.0390112,-0.0274181,0.0764132
17189,-0.000244141,-0.000244141,1.00024,-0.0695288,-0.0884533,-0.0151396
17209,-0.000488281,0,1.00024,-0.0390112,-0.0579357,-0.0761747
17229,-0.000488281,-0.000244141,1.00049,-0.0390112,0.12517,-0.0761747
17259,-0.000732422,-0.000244141,1.00146,-0.130564,0.00309944,-0.0761747
17269,-0.000732422,-0.000244141,1.00146,-0.0695288,0.00309944,0.106931
17279,-0.000244141,-0.000244141,1.00171,0.144094,0.033617,-0.0151396
17289,-0.000244141,0,1.00122,-0.0390112,-0.0579357,-0.13721
17309,-0.000244141,0.000244141,1.00098,-0.0390112,0.0641346,-0.167727
17329,-0.000244141,-0.000244141,1.00073,-0.00849366,-0.0274181,0.0764132
17349,-0.000488281,-0.000488281,1.00024,-0.100046,-0.0579357,-0.0456572
17379,0,-0.000732422,1.00049,-0.0695288,0.0641346,0.0458956
17389,0,-0.000976562,1.00098,0.0220239,-0.118971,-0.0456572
17399,0,-0.000732422,1.00049,-0.0390112,-0.0579357,0.0458956
17409,0,-0.000488281,1.00073,0.0830591,-0.0579357,-0.106692
17429,-0.000244141,-0.000488281,1,-0.0695288,-0.0274181,-0.106692
17439,-0.000488281,-0.000732422,1.00073,0.0525415,-0.0274181,-0.106692
17459,-0.000732422,-0.000488281,1.00122,0.205129,-0.0884533,0.0458956
17479,-0.000732422,-0.000244141,1.00171,0.0830591,-0.118971,-0.167727
17499,-0.000976562,-0.000488281,1.00171,-0.00849366,0.033617,-0.0456572
17519,-0.000732422,-0.000488281,1.00122,-0.0695288,0.00309944,0.0458956
17609,-0.000488281,-0.000488281,1.00049,-0.00849366,0.033617,-0.0456572
17619,-0.000244141,-0.000976562,1.00098,0.0830591,-0.0274181,-0.0761747
17649,-0.000244141,-0.00146484,1.00049,-0.100046,0.12517,-0.198245
17669,-0.000244141,-0.0012207,1.00073,-0.100046,0.0946522,-0.167727
17679,-0.000488281,-0.000976562,1.00073,-0.0695288,-0.0274181,-0.0151396
17689,-0.000244141,-0.000488281,1.00073,0.113577,-0.0884533,0.015378
17699,-0.000244141,-0.000976562,1,0.0830591,0.0946522,0.0458956
17719,-0.000244141,-0.000732422,1.00024,-0.0390112,0.12517,-0.0456572
17729,0,-0.000488281,1.00049,-0.0695288,-0.0274181,-0.106692
17739,0,0,1.00049,-0.0390112,0.0641346,0.0458956
17749,0,-0.000244141,1.00049,-0.0390112,0.0641346,-0.0151396
17769,-0.000244141,-0.000488281,1.00073,-0.130564,0.00309944,-0.13721
17779,-0.000244141,-0.000732422,1.00073,0.0220239,-0.0274181,0.0764132
17799,-0.000488281,-0.000488281,1.00024,0.113577,-0.0884533,0.106931
17819,-0.000488281,-0.000488281,1.00049,-0.00849366,-0.0579357,-0.0456572
17839,-0.000244141,-0.000732422,1.00122,-0.00849366,-0.0579357,-0.167727
17869,-0.000244141,-0.000488281,1.00171,0.0220239,0.0641346,0.0458956
17899,-0.000244141,0.000244141,1.00098,0.0220239,-0.0884533,-0.0151396
17929,-0.000488281,-0.000488281,1.00049,-0.0390112,-0.118971,0.0764132
17939,-0.000732422,-0.000488281,1.00073,-0.00849366,0.00309944,0.015378
17959,-0.000244141,-0.000244141,1.00098,0.0830591,-0.118971,0.0458956
17979,-0.000488281,0,0.999756,-0.0390112,-0.0579357,-0.0151396
17989,-0.000488281,-0.000244141,1,0.0220239,0.0946522,-0.106692
17999,-0.000488281,-0.000244141,0.999756,-0.00849366,-0.210524,-0.106692
18009,-0.000488281,-0.000488281,0.999268,0.0525415,0.0946522,-0.0761747
18019,0,-0.000488281,0.999268,-0.0390112,0.00309944,-0.106692
18039,0.000244141,-0.000488281,0.999512,-0.00849366,0.12517,0.0458956
18049,0.000488281,-0.000732422,1,-0.130564,-0.0274181,0.015378
18059,0,-0.000732422,0.999756,0.113577,-0.0884533,0.0764132
18089,-0.000488281,-0.000244141,1.00049,0.144094,-0.0884533,-0.0456572
18099,-0.000488281,-0.000244141,1.00049,0.0525415,0.12517,0.0458956
18109,0,0,1.00122,-0.0695288,-0.0274181,0.0458956
18139,0,0.000244141,1.00122,-0.100046,-0.149488,0.137448
18149,-0.000244141,-0.000244141,1.00122,-0.252634,0.24724,0.137448
18169,-0.000244141,-0.000244141,1.00171,-0.0390112,-0.0274181,0.106931
18199,-0.000488281,0,1.00098,0.0830591,0.00309944,0.106931
18209,-0.000488281,0.000244141,1.00073,-0.0695288,0.0641346,-0.0151396
18229,0,0.000244141,1.00024,-0.161082,0.155687,-0.0761747
18239,0.000244141,-0.000244141,1.00073,0.0525415,0.12517,0.015378
18259,0,-0.000244141,1.00049,-0.0390112,0.12517,0.015378
18279,0,-0.000244141,1.00098,0.0830591,0.0946522,-0.0151396
18289,0.000244141,-0.000488281,1.00049,-0.130564,0.0946522,0.0764132
18299,0,-0.000244141,1.00098,0.0525415,-0.180006,-0.0151396
18309,-0.000244141,-0.000488281,1.00098,-0.0390112,0.00309944,0.0458956
18319,0,-0.000732422,1.00098,-0.00849366,0.033617,-0.0456572
18339,0,-0.000488281,1.00122,-0.0695288,-0.0274181,-0.106692
18349,-0.000244141,-0.000488281,1.00098,-0.130564,0.00309944,0.015378
18359,-0.000488281,-0.000244141,1.00073,0.0830591,0.0641346,0.015378
18369,0.000244141,-0.000488281,1.00024,-0.100046,0.0641346,-0.0456572
18379,-0.000244141,-0.000244141,1,-0.00849366,0.033617,-0.0456572
18389,0,-0.000488281,1,0.205129,0.0641346,-0.106692
18409,0.000244141,-0.000488281,1.00073,0.0525415,-0.0274181,0.0764132
18419,0.000244141,-0.000488281,1.00073,-0.130564,-0.0579357,-0.0151396
18429,0.000488281,-0.000488281,1.00049,0.0830591,-0.118971,-0.0456572
18439,0.000244141,-0.000488281,1.00024,0.0525415,0.00309944,-0.0456572
18449,0,-0.000244141,0.999756,0.113577,-0.0579357,-0.0456572
18459,0.000244141,-0.000244141,0.999756,0.0220239,-0.0274181,0.106931
18469,0,-0.000488281,1,0.0220239,-0.0274181,0.137448
18479,0,-0.000732422,1.00049,0.0220239,0.0641346,0.015378
18489,0.000488281,-0.000488281,1.00098,-0.0390112,-0.0274181,-0.0151396
18499,0.000488281,-0.000244141,1.00024,-0.00849366,-0.0274181,-0.0761747
18509,0,-0.000244141,1.00024,0.144094,-0.0274181,-0.0761747
18519,-0.000244141,0,1.00073,-0.0695288,0.0946522,0.0764132
18539,0.000488281,0.000244141,1.00073,-0.0390112,0.033617,-0.0761747
18549,0.000244141,-0.000244141,1.00122,0.0830591,0.00309944,-0.0151396
18559,0.000244141,0.000244141,1.00073,-0.0390112,0.00309944,-0.0456572
18569,0.000244141,-0.000244141,1.00024,0.0525415,0.00309944,0.0764132
18579,0.000488281,0,1,-0.0695288,0.00309944,-0.0456572
18589,0,-0.000244141,1.00073,-0.0390112,0.24724,-0.0151396
18599,-0.000244141,-0.000488281,1.00049,-0.0695288,0.0641346,-0.0151396
18609,-0.000244141,-0.000732422,1.00098,-0.0390112,0.00309944,-0.0761747
18619,-0.000244141,-0.000976562,1.00098,0.0525415,-0.118971,0.0764132
18629,-0.000488281,-0.000976562,1.00073,0.0830591,-0.0274181,0.015378
18639,-0.000244141,-0.000732422,1.00049,-0.0695288,0.00309944,0.137448
18649,-0.000488281,-0.000488281,1.00024,-0.0695288,0.0946522,-0.0151396
18659,-0.000244141,0,1.00024,-0.00849366,0.00309944,-0.0151396
18669,-0.000244141,0.000488281,1.00049,-0.0390112,0.00309944,0.0764132
18689,-0.000244141,0,1.00098,0.0220239,0.00309944,0.106931
18699,0,0,1.00098,-0.0390112,0.216722,0.137448
18709,0.000244141,0.000244141,1.00073,0.113577,-0.0579357,0.167966
18719,0,0.000244141,1.00024,-0.00849366,-0.0884533,-0.106692
18729,0,0.000244141,1,-0.00849366,-0.0579357,0.137448
18739,0,0.000488281,1.00024,0.113577,-0.0274181,-0.0151396
18759,0,0.000488281,1.00073,0.0220239,-0.118971,0.015378
18769,-0.000244141,0,1.00122,0.113577,0.12517,0.137448
18819,-0.000244141,-0.000488281,1.00073,0.0830591,0.0946522,-0.0151396
18839,-0.000732422,0,1.00049,0.0525415,0.155687,0.0458956
18859,-0.000732422,-0.000488281,1.00049,0.0220239,0.155687,-0.0761747
18869,-0.000976562,-0.000732422,1.00122,0.0220239,-0.0579357,0.0764132
18879,-0.000732422,-0.000976562,1.00122,0.113577,0.00309944,0.0458956
18919,-0.000488281,-0.000488281,1.00098,0.0220239,0.12517,0.0764132
18929,-0.000488281,-0.000732422,1.00146,-0.0695288,0.00309944,-0.0761747
18959,-0.000732422,-0.000732422,1.00073,-0.100046,0.033617,0.015378
18969,-0.000244141,-0.000732422,1.00146,-0.100046,0.033617,-0.106692
19009,0,-0.000732422,1.00122,-0.0390112,0.0641346,-0.0456572
19039,-0.000244141,-0.000976562,1.00049,-0.191599,-0.0274181,0.0458956
19049,0,-0.000732422,1.00024,0.0525415,-0.0274181,0.0458956
19059,0,-0.000488281,1.00049,0.0220239,0.12517,-0.0456572
19069,-0.000244141,-0.000732422,1.00024,0.0220239,0.12517,0.015378
19099,-0.000488281,-0.000488281,1.00073,-0.00849366,0.033617,0.137448
19109,-0.000488281,-0.000488281,1.00024,-0.100046,0.033617,0.015378
19129,0,-0.000732422,1.00024,-0.0390112,0.12517,-0.198245
19149,0,0,1.00073,0.113577,-0.0274181,0.0764132
19179,-0.000488281,-0.000244141,1.00171,0.144094,-0.0579357,-0.0151396
19199,-0.000244141,0,1.00122,0.0830591,0.033617,0.015378
19209,-0.000244141,0,1.00049,-0.0390112,0.0641346,-0.0456572
19239,-0.000244141,-0.000244141,1.00098,-0.161082,0.00309944,-0.0456572
19269,0,-0.000488281,1.00024,-0.0390112,0.00309944,-0.0456572
19309,0,-0.000732422,0.999512,-0.161082,0.00309944,0.015378
19369,-0.000488281,-0.000732422,1.00049,0.0220239,-0.0579357,0.0458956
19399,-0.000244141,-0.000976562,1.00098,0.0830591,0.0641346,0.106931
19439,0.000488281,-0.000732422,1.00024,0.113577,0.0641346,-0.106692
19449,0.000488281,-0.000732422,1.00024,-0.0695288,0.00309944,0.0458956
19469,0.000244141,-0.000732422,1.00073,-0.0390112,0.155687,0.0764132
19509,-0.000488281,-0.000976562,1.00122,0.205129,0.0946522,-0.167727
19519,-0.000488281,-0.000732422,1.00122,0.0220239,-0.0579357,0.015378
19539,-0.000488281,-0.000976562,1.00171,-0.100046,-0.0579357,0.0458956
19559,-0.000244141,-0.000732422,0.999512,0.0830591,0.00309944,0.015378
19579,-0.000244141,-0.000732422,0.999512,0.0220239,0.0641346,0.015378
19609,-0.000244141,-0.000732422,0.999756,0.205129,0.033617,0.0764132
19639,0.000244141,-0.000244141,1.00024,-0.100046,-0.0274181,0.106931
19649,0.000488281,0,1.00049,0.0830591,0.033617,-0.0456572
19659,0,-0.000244141,1.00024,-0.00849366,0.0946522,0.0764132
19669,0,-0.000244141,1.00049,0.0220239,-0.0884533,-0.0151396
19679,0,-0.000244141,1.00049,-0.00849366,-0.180006,-0.0151396
19719,0,-0.000244141,1.00073,-0.0390112,0.0641346,0.0764132
19729,0,-0.000488281,1.00073,0.0830591,0.00309944,-0.167727
19739,0,-0.000732422,1.00024,-0.130564,0.12517,-0.106692
19769,-0.000488281,-0.0012207,1.00098,-0.100046,-0.0579357,-0.0151396
19799,0,-0.000732422,1.00049,-0.0390112,-0.271559,0.229001
19809,0,-0.000488281,1.00073,-0.0390112,-0.0274181,-0.0456572
19819,0,-0.000488281,1.00049,0.205129,0.0946522,0.015378
19829,-0.000244141,-0.000488281,1.00073,-0.00849366,0.033617,-0.0151396
19839,0.000244141,-0.000244141,1.00122,-0.00849366,0.00309944,0.0458956
19849,0.000244141,-0.000244141,1.00098,-0.191599,-0.0274181,-0.228763
19869,0,-0.000244141,1.00122,-0.0390112,0.0946522,-0.0151396
19879,0,-0.000244141,1.00049,0.235647,-0.149488,-0.0456572
19899,0.000488281,-0.000244141,1.00024,-0.0390112,0.033617,0.015378
19909,0.000244141,-0.000244141,1.00024,0.0220239,-0.0274181,-0.106692
19919,0.000244141,0,1.00073,0.0525415,0.033617,0.106931
19929,0,-0.000244141,1.00073,0.0220239,0.0641346,-0.106692
19939,0.000244141,-0.000488281,1,-0.00849366,0.186205,0.0764132
19949,0,-0.000488281,1.00024,0.113577,-0.0274181,0.0458956
19959,-0.000244141,-0.000488281,1.00073,-0.252634,0.0946522,0.137448
19969,-0.000244141,-0.000732422,1,-0.0390112,0.155687,0.106931
19979,-0.000244141,-0.000976562,1.00024,0.205129,0.00309944,-0.106692
19989,-0.000244141,-0.000976562,1,-0.00849366,0.0641346,-0.0761747
19999,-0.000244141,-0.00146484,1,-0.00849366,0.033617,-0.0456572
20019,-0.000244141,-0.000732422,1.00024,-0.0695288,-0.0884533,-0.0151396
20029,-0.000488281,-0.000732422,1.00049,-0.252634,0.0641346,-0.13721
20039,-0.000244141,-0.000488281,1.00049,-0.0390112,0.00309944,-0.0151396
20049,-0.000244141,-0.000488281,1.00024,-0.100046,0.12517,-0.167727
20059,0,-0.000732422,1.00049,-0.130564,-0.0884533,0.106931
20069,-0.000244141,-0.0012207,1,-0.161082,-0.0274181,-0.106692
20079,-0.000244141,-0.0012207,1,-0.00849366,0.0946522,0.015378
20089,-0.000488281,-0.0012207,1.00024,0.113577,-0.0579357,-0.0151396
20099,-0.000488281,-0.0012207,0.999756,-0.0390112,-0.0884533,-0.0761747
20109,-0.000488281,-0.000976562,1.00024,0.0525415,0.12517,-0.0456572
20119,-0.000244141,-0.000732422,1.00049,-0.100046,0.033617,-0.0456572
20129,-0.000244141,-0.000976562,1,-0.00849366,0.033617,-0.0761747
20139,-0.000732422,-0.000488281,0.999756,-0.0390112,0.0641346,0.0458956
20149,-0.000732422,-0.000488281,0.999756,-0.0695288,0.00309944,0.0458956
20159,-0.000488281,-0.000732422,0.999756,-0.0390112,0.0641346,0.137448
20169,-0.000244141,-0.000732422,0.999756,-0.130564,-0.0884533,0.0458956
20179,-0.000244141,-0.000488281,0.999756,0.0830591,0.00309944,-0.13721
20189,-0.000244141,-0.000976562,1.00073,-0.100046,-0.0884533,-0.0151396
20199,-0.000244141,-0.000244141,1.00049,-0.0390112,-0.0884533,-0.0151396
20209,-0.000244141,-0.000732422,1.00073,0.0830591,0.00309944,0.015378
20229,-0.000244141,-0.000732422,1,-0.0390112,-0.0579357,0.0764132
20239,0,-0.000732422,1.00098,0.0220239,0.0641346,-0.0151396
20249,0.000244141,-0.000488281,1.00098,0.0525415,0.00309944,0.015378
20269,0.000244141,-0.000244141,0.999756,0.0525415,0.033617,-0.0151396
20309,0,0,0.999023,-0.0390112,-0.0884533,-0.0151396
20319,0.000244141,0.000244141,0.999023,0.113577,-0.0579357,0.0764132
20329,0,0,0.999268,-0.100046,0.00309944,0.0764132
20339,0,0,0.999512,0.0220239,0.0641346,0.0458956
20349,0.000244141,-0.000244141,0.999023,0.0525415,0.033617,0.106931
20379,0,-0.000488281,0.999512,0.0525415,0.00309944,0.0458956
20399,0,-0.000732422,0.999512,-0.100046,-0.0884533,-0.0456572
20409,0,-0.000732422,0.999023,0.0220239,0.00309944,0.015378
20419,0,-0.000732422,0.999512,-0.0695288,-0.0579357,-0.0456572
20469,-0.000244141,-0.000488281,0.999756,-0.0695288,0.186205,0.198483
20489,-0.000488281,0,1,0.113577,0.0946522,0.137448
20499,-0.000244141,-0.000244141,1.00024,-0.100046,-0.180006,0.015378
20529,0,-0.000488281,0.999756,-0.100046,0.155687,-0.0151396
20549,-0.000244141,-0.000488281,1.00049,-0.0695288,-0.0579357,0.106931
20609,-0.000488281,-0.000488281,1.00171,0.0525415,-0.0274181,-0.0761747
20739,0,0,1.00024,-0.100046,-0.0579357,-0.0456572
20749,0.000488281,0,0.999756,0.0525415,0.186205,-0.0761747
20799,0.000244141,0.000244141,0.999023,-0.100046,0.12517,-0.0456572
20809,-0.000244141,0.000244141,1,0.0525415,0.00309944,0.0764132
20819,-0.000488281,0,0.999756,0.0220239,0.0946522,0.015378
20829,0,0,0.999756,-0.0695288,0.033617,-0.0761747
20859,0.000488281,-0.000488281,1.00073,-0.0390112,0.12517,0.0764132
20869,0.000488281,-0.000488281,1.00049,-0.0695288,0.0946522,0.015378
20889,0,-0.000244141,1.00024,-0.0695288,-0.0274181,-0.0151396
20899,-0.000244141,-0.000244141,1.00073,-0.0695288,-0.0274181,0.137448
20919,-0.000732422,-0.000488281,1.00049,0.0220239,0.00309944,0.0458956
20929,-0.000488281,-0.000244141,1.00049,0.0525415,-0.118971,0.015378
20939,-0.000488281,-0.000244141,1.00122,0.0525415,-0.0274181,0.106931
20969,-0.000732422,-0.000244141,1.00049,-0.00849366,0.033617,-0.0761747
20989,-0.000732422,-0.000488281,1.00049,-0.0390112,-0.149488,-0.0761747
21009,-0.000732422,-0.000244141,0.999512,0.113577,-0.0579357,0.137448
21019,-0.000488281,-0.000244141,0.999756,-0.00849366,0.0946522,0.0458956
21039,-0.000244141,0,1,0.0525415,-0.0884533,0.259519
21089,-0.000488281,-0.000244141,1.00073,0.174612,-0.0579357,-0.0151396
21099,-0.000732422,-0.000488281,1.00049,-0.130564,0.033617,-0.0456572
21109,-0.000244141,-0.000488281,1.00073,-0.0390112,0.00309944,-0.0151396
21129,-0.000244141,-0.000244141,1.00049,0.0220239,0.0946522,0.015378
21139,-0.000244141,-0.000244141,1,0.0220239,0.033617,-0.0761747
21169,0,0,1.00098,0.144094,0.00309944,0.015378
21179,0,-0.000244141,1.00098,0.0830591,0.00309944,0.0458956
21239,-0.000488281,-0.000488281,1.00098,-0.0695288,0.00309944,-0.198245
21259,-0.000488281,-0.000244141,1.00171,-0.00849366,-0.0274181,-0.0456572
21259,-0.000488281,-0.000244141,1.00171,-0.00849366,-0.0274181,-0.0456572
21269,-0.000732422,0,1.0022,0.0220239,0.12517,-0.0151396
21289,-0.000488281,0,1.00171,0.0220239,0.0641346,0.015378
21299,-0.000244141,0,1.00195,-0.130564,0.033617,0.0764132
21309,-0.000732422,-0.000244141,1.00122,0.0830591,-0.0884533,0.0764132
21329,-0.000488281,-0.000244141,1.00073,-0.100046,0.0946522,-0.0456572
21339,-0.000488281,-0.000244141,1.00049,0.0220239,0.0946522,-0.0151396
21359,0,-0.000488281,1.00098,0.0220239,-0.0579357,0.137448
21379,0,-0.000488281,1.00049,-0.0695288,0.12517,-0.0151396
21389,0,-0.000488281,1.00073,-0.00849366,0.0946522,0.0458956
21409,0,-0.000244141,1.00024,0.0525415,0.0641346,0.015378
21419,-0.000244141,-0.000488281,1.00073,0.113577,0.033617,0.0458956
21429,-0.000488281,-0.000244141,1.00122,0.0525415,-0.0884533,0.0458956
21439,-0.000488281,-0.000732422,1.00098,-0.0695288,0.12517,0.106931
21449,-0.000244141,-0.000244141,1.00073,0.113577,0.033617,0.015378
21459,0,0,1.00073,0.0525415,0.00309944,-0.0456572
21469,0,-0.000244141,1.00098,-0.0695288,0.0946522,-0.0151396
21479,0.000244141,0,1.00049,-0.130564,-0.0579357,0.015378
21489,0.000244141,-0.000244141,1.00024,-0.0390112,0.00309944,0.0764132
21499,-0.000244141,-0.000244141,1,-0.0695288,0.0946522,-0.106692
21509,-0.000244141,-0.000244141,1.00024,-0.0390112,0.155687,-0.0456572
21519,-0.000732422,-0.000244141,1.00024,-0.100046,0.186205,0.0764132
21529,-0.000244141,-0.000488281,1.00049,-0.0390112,-0.0579357,-0.0761747
21539,-0.000488281,-0.000488281,1.00073,0.113577,-0.0884533,-0.0456572
21549,-0.000732422,-0.000488281,1.00073,0.174612,0.0946522,-0.0456572
21559,-0.000488281,-0.000732422,1.00049,-0.0695288,-0.0884533,-0.0761747
21569,-0.000488281,-0.000488281,1.00073,0.0525415,0.186205,0.0458956
21579,-0.000244141,-0.000488281,1.00049,0.205129,-0.0579357,-0.0151396
21589,-0.000488281,-0.000732422,1.00049,-0.100046,0.0641346,-0.0456572
21599,-0.000244141,-0.000732422,1.00049,0.0220239,0.0641346,-0.0456572
21609,-0.000244141,-0.000732422,1.00073,0.0830591,0.0946522,-0.0456572
21619,-0.000244141,-0.000488281,1.00073,-0.00849366,0.155687,0.106931
21629,-0.000244141,-0.000244141,1.00024,0.0830591,0.155687,-0.0456572
21639,0,0,1.00049,-0.00849366,0.033617,0.0764132
21649,0.000244141,-0.000244141,1.00049,-0.100046,0.00309944,0.0764132
21669,0.000488281,0.000244141,1.00098,-0.0390112,0.00309944,-0.0456572
21679,0.000488281,0,1.00049,0.0525415,-0.210524,0.015378
21689,0.000488281,-0.000244141,1.00073,0.0525415,0.00309944,-0.198245
21699,0,-0.000244141,1.00098,0.0525415,0.155687,0.0764132
21709,0.000244141,-0.000244141,1.00122,-0.283152,0.033617,0.015378
21719,0.000488281,0,1.00098,-0.130564,-0.0274181,0.015378
21729,0.000244141,0.000244141,1.00146,0.144094,0.0946522,-0.0151396
21739,0.000488281,0,1.00098,-0.0695288,0.12517,-0.0151396
21749,0,0,1.00073,-0.0695288,0.0641346,-0.0151396
21759,0.000488281,0,1.00122,-0.0390112,0.12517,0.0764132
21769,0.000488281,0,1.00073,0.0220239,0.186205,0.0458956
21779,0.000732422,-0.000244141,1.00049,0.0525415,-0.0274181,-0.0456572
21799,0,-0.000732422,1.00073,-0.0695288,0.12517,0.106931
21809,0,-0.000488281,1.00073,-0.0390112,0.00309944,0.0764132
21819,0,-0.000244141,1.00049,-0.0390112,0.033617,0.0458956
21829,0.000244141,-0.000976562,1.00049,0.113577,-0.0274181,0.0458956
21839,0.000488281,-0.000976562,1,-0.0390112,0.033617,0.0458956
21849,0,-0.000976562,1.00024,0.0220239,0.033617,0.137448
21859,-0.000488281,-0.000976562,1.00024,-0.0695288,-0.0274181,0.0458956
21879,-0.000488281,-0.000732422,1.00073,0.0830591,-0.0579357,-0.0151396
21889,-0.000488281,-0.000732422,1.00073,0.0525415,0.033617,-0.0761747
21899,-0.000732422,-0.000488281,1.00146,-0.0390112,0.0641346,-0.0151396
21919,-0.000732422,-0.000488281,1.00122,-0.0390112,0.0946522,-0.0456572
21939,-0.000732422,-0.000244141,1.00098,-0.0390112,-0.149488,0.0764132
21949,-0.000732422,0,1.00122,0.113577,-0.180006,0.106931
21959,-0.000732422,0,1.00098,0.0525415,-0.0579357,0.015378
21979,-0.000488281,0,1.00146,0.174612,-0.0884533,0.015378
21999,-0.000488281,0.000488281,1.00049,-0.0390112,0.0946522,0.0458956
22009,-0.000244141,0.000244141,1.00049,-0.00849366,0.0641346,-0.0151396
22029,-0.000732422,0.000488281,1.00098,0.0220239,0.12517,-0.0151396
22039,-0.000244141,0,1.00146,0.0525415,0.12517,-0.0761747
22059,-0.000488281,-0.000244141,1.00122,-0.0390112,0.0946522,-0.0151396
22109,-0.000244141,0,0.999756,-0.00849366,0.155687,0.015378
22139,-0.000488281,-0.000488281,0.999756,-0.0390112,0.155687,0.0764132
22289,-0.000488281,-0.000244141,1.00146,0.0220239,-0.0579357,-0.0761747
22309,-0.000244141,0.000244141,1.00122,-0.0390112,0.0946522,-0.0151396
22339,-0.000244141,0,1.00073,0.0830591,0.00309944,-0.0456572
22409,0.000488281,-0.000488281,1.00024,0.0525415,-0.0274181,-0.0456572
22419,0.000488281,-0.000488281,1.00122,0.0220239,-0.0274181,-0.0456572
22439,0.000244141,-0.000244141,1.00073,-0.0695288,0.033617,0.0764132
22449,0.000244141,-0.000488281,1.00024,-0.100046,0.12517,0.015378
22469,-0.000244141,-0.000488281,1.00049,0.0525415,0.186205,-0.0761747
22479,-0.000488281,-0.000488281,1,-0.00849366,-0.0884533,0.0458956
22529,0.000244141,-0.000244141,1.00073,-0.0390112,0.0641346,0.0458956
22549,-0.000244141,-0.000488281,1.00049,-0.161082,0.12517,-0.0456572
22559,-0.000244141,-0.000488281,1.00024,-0.161082,0.0946522,0.0458956
22579,-0.000244141,-0.000488281,1.00049,0.0525415,-0.118971,-0.167727
22609,-0.000732422,-0.000488281,1.00024,0.0220239,0.216722,0.0458956
22659,-0.000244141,-0.000488281,1.00073,-0.130564,0.0641346,0.015378
22689,-0.000244141,-0.000244141,1.00024,-0.00849366,0.00309944,-0.106692
22699,-0.000488281,-0.000488281,1.00049,0.0525415,0.033617,-0.106692
22719,-0.000732422,-0.000732422,1.00024,0.0525415,-0.0579357,-0.13721
22729,-0.000488281,-0.000976562,1.00024,0.0220239,0.00309944,-0.0456572
22749,0,-0.000732422,1.00024,-0.0390112,0.0946522,-0.106692
22769,-0.000244141,-0.000732422,1.00049,-0.0695288,0.155687,-0.0151396
22779,-0.000244141,-0.000976562,1.00073,-0.0390112,-0.0884533,-0.106692
22789,0,-0.000976562,1.00122,-0.130564,-0.0884533,-0.106692
22799,0.000488281,-0.000976562,1.00098,-0.100046,-0.0274181,0.0458956
22809,0,-0.000976562,1.00098,0.0830591,0.0641346,0.0764132
22819,0,-0.000976562,1.00073,-0.00849366,-0.0274181,0.106931
22849,-0.000244141,-0.000488281,1.00073,-0.00849366,-0.0579357,0.015378
22859,0.000244141,-0.000244141,1.00098,-0.0390112,-0.180006,-0.13721
22869,-0.000244141,-0.000488281,1.00049,0.0220239,-0.0274181,0.0764132
22889,0,-0.000732422,0.999756,-0.0390112,0.0641346,-0.0151396
22909,0,-0.000488281,1,0.144094,0.033617,0.015378
22919,0.000488281,-0.000488281,0.999756,-0.00849366,0.0641346,-0.0761747
22929,0.000732422,-0.000488281,0.999512,0.144094,-0.0274181,-0.13721
22939,0.000244141,0,0.999756,0.113577,-0.0274181,-0.0456572
22949,0,-0.000244141,0.999756,-0.100046,0.0641346,-0.167727
22969,0.000244141,-0.000732422,1.00024,-0.00849366,-0.0884533,-0.167727
22979,0,-0.000976562,1,-0.0390112,0.0641346,-0.13721
22989,-0.000488281,-0.000732422,1.00024,-0.00849366,0.186205,-0.13721
22999,0,-0.000488281,1.00024,0.0830591,-0.0884533,-0.0151396
23009,0.000244141,-0.000488281,1.00073,-0.0695288,0.00309944,0.015378
23019,0.000244141,-0.000732422,1.00098,0.0525415,0.00309944,0.106931
23029,0.000244141,-0.000244141,1.00122,-0.0390112,0.0946522,0.0458956
23039,0.000244141,-0.000488281,1.00098,0.0220239,0.0641346,0.015378
23049,0,-0.000732422,1.00024,-0.130564,-0.0579357,0.0458956
23059,0.000244141,-0.000488281,1.00024,-0.00849366,0.0641346,-0.0761747
23069,0.000488281,-0.000732422,1.00049,-0.00849366,-0.0274181,-0.0456572
23079,0.000488281,-0.000244141,1,0.0830591,0.12517,-0.320315
23089,0.000244141,0,1,0.0525415,-0.0884533,-0.0761747
23099,0.000244141,0,1.00024,-0.0390112,0.00309944,0.0764132
23109,0,-0.000244141,1.00024,0.0830591,0.0641346,0.0458956
23119,0.000732422,-0.000488281,0.999268,-0.00849366,-0.0274181,0.0458956
23129,0.000976562,-0.000732422,1,0.0830591,0.186205,-0.0456572
23139,0.000488281,-0.000488281,1.00073,-0.0695288,0.0946522,-0.0456572
23149,0.000488281,-0.000488281,1.00073,0.113577,0.00309944,0.015378
23159,0.000732422,-0.000244141,1.00098,0.0830591,-0.0274181,0.015378
23169,0.000244141,-0.000244141,1.00098,0.144094,-0.149488,0.106931
23179,0.000244141,-0.000488281,1.00122,0.205129,-0.0884533,0.0458956
23189,0,-0.000244141,1.00122,-0.100046,0.186205,0.0764132
23199,0,-0.000488281,1.00122,-0.100046,0.0641346,-0.0456572
23219,0.000244141,-0.000488281,1.0022,0.0525415,0.0641346,-0.13721
23229,0,-0.000244141,1.00195,0.0220239,0.033617,-0.0151396
23249,-0.000244141,-0.000488281,1.00195,-0.00849366,0.00309944,-0.0151396
23259,-0.000244141,-0.000732422,1.00122,-0.00849366,0.0641346,-0.0456572
23269,0.000244141,0,1.00146,0.0830591,0.0641346,0.015378
23279,0.000244141,-0.000244141,1.00122,-0.0695288,0.186205,-0.13721
23289,0.000732422,0,1.00024,0.0220239,0.00309944,-0.0456572
23299,0.000488281,-0.000244141,1.00073,0.0830591,-0.0274181,-0.0456572
23309,0.000244141,0.000244141,1.00122,0.0830591,0.00309944,-0.0151396
23319,0,-0.000244141,1.00073,-0.0695288,-0.0884533,0.106931
23329,0.000244141,0,1.00073,0.0220239,0.186205,-0.0456572
23339,0.000244141,0,1.00049,-0.0390112,-0.0274181,-0.13721
23349,-0.000244141,0,1.00049,0.0220239,0.0641346,0.0458956
23359,-0.000244141,0.000244141,1.00073,0.0220239,0.033617,0.015378
23369,-0.000244141,-0.000244141,1.00024,-0.0390112,0.12517,0.015378
23379,-0.000488281,-0.000488281,1.00073,0.144094,0.033617,0.015378
23389,0,-0.000732422,1.00024,-0.00849366,-0.0274181,-0.13721
23399,0,-0.000488281,1,0.0220239,0.0946522,0.106931
23409,0.000244141,-0.000976562,1.00024,0.0525415,-0.0579357,0.0458956
23419,0,-0.000732422,1.00024,-0.0390112,-0.0274181,-0.0151396
23429,-0.000244141,-0.000732422,1,-0.00849366,0.00309944,-0.25928
23439,-0.000244141,-0.000488281,0.999756,-0.0390112,0.0946522,-0.0761747
23459,0.000488281,-0.000244141,0.999512,-0.130564,-0.0274181,-0.0456572
23469,0.000976562,-0.000244141,0.999756,0.0220239,0.00309944,-0.106692
23489,0.000488281,-0.000244141,1.00024,0.0220239,0.155687,-0.0761747
23509,0,-0.000244141,0.999756,0.0525415,-0.210524,-0.0761747
23519,-0.000244141,-0.000488281,0.999512,0.0830591,0.12517,-0.0456572
23539,-0.000244141,-0.000488281,1.00049,0.113577,-0.0274181,0.137448
23549,0,-0.000488281,0.999756,0.0830591,0.033617,0.0458956
23559,0,-0.000488281,1,-0.100046,0.0641346,0.015378
23569,-0.000244141,-0.000732422,1,0.0830591,-0.0274181,-0.13721
23579,0,-0.000976562,1.00049,0.0220239,0.033617,0.015378
23599,0,-0.000732422,0.999756,-0.100046,0.12517,0.015378
23619,-0.000488281,-0.000244141,0.999756,-0.00849366,-0.0274181,0.015378
23629,-0.000488281,-0.000244141,1.00073,0.205129,0.033617,-0.0761747
23639,-0.000244141,-0.000244141,1.00122,-0.0390112,0.0641346,0.015378
23669,-0.000488281,-0.000488281,1,-0.00849366,0.155687,-0.0151396
23709,-0.000244141,-0.000488281,1,0.0220239,-0.149488,0.015378
23719,-0.000244141,-0.000488281,0.999268,0.0525415,0.0641346,-0.0151396
23739,0,0,0.999756,0.0525415,-0.0884533,-0.0456572
23749,0.000488281,-0.000488281,1.00024,0.0830591,-0.0884533,-0.0456572
23759,0.000244141,-0.000488281,1.00024,0.0830591,0.0641346,-0.0761747
23769,0,-0.000732422,1.00049,0.0525415,0.216722,0.0764132
23799,-0.000244141,-0.000732422,1.00122,0.205129,0.00309944,-0.0761747
23809,-0.000244141,-0.000488281,1.00049,0.113577,0.033617,-0.13721
23859,-0.000244141,-0.0012207,0.999756,-0.0695288,0.0641346,0.106931
23869,-0.000244141,-0.000976562,0.999512,0.144094,-0.0274181,-0.13721
23879,-0.000488281,-0.000976562,1.00024,0.0830591,-0.0274181,-0.0456572
23889,-0.000244141,-0.000732422,0.999512,0.0525415,-0.0274181,0.0458956
23929,0,-0.000244141,0.999512,-0.0390112,0.12517,-0.13721
23969,0,-0.000244141,1.00049,-0.0695288,0.0641346,0.015378
23999,-0.000488281,0,0.999512,-0.161082,0.24724,0.015378
24039,0,0.000244141,0.999268,-0.161082,0.12517,0.106931
24069,-0.000488281,0.000244141,0.999023,0.0525415,0.0946522,-0.0761747
24109,0,0,1,-0.0695288,0.0946522,-0.0151396
24119,0.000488281,0,1.00049,-0.00849366,0.033617,-0.0761747
24129,0.000244141,0,1.00049,0.0220239,0.00309944,-0.167727
24149,0.000244141,0,1.00024,0.0830591,0.00309944,0.0458956
24159,0.000244141,-0.000244141,1.00073,0.113577,0.0946522,-0.167727
24169,0.000244141,0,1.00098,0.0220239,0.0946522,-0.0151396
24179,0,0,1.00098,0.0525415,0.0641346,-0.0456572
24199,0.000488281,0,1.00122,-0.100046,-0.0274181,-0.0456572
24219,0.000732422,-0.000488281,1.00073,-0.00849366,0.0641346,-0.0456572
24259,0.000488281,-0.000732422,1,-0.0695288,0.00309944,0.0764132
24279,0,-0.000488281,1.00073,-0.0695288,-0.0884533,0.137448
24289,-0.000244141,0,1.00098,-0.161082,0.00309944,0.015378
24309,-0.000488281,0,1.00098,-0.0390112,-0.0274181,-0.0761747
24319,-0.000488281,0.000244141,1.00122,-0.00849366,-0.0579357,0.015378
24329,-0.000732422,0.000488281,1.00098,0.0220239,-0.118971,0.015378
24349,-0.000488281,-0.000244141,1.00049,-0.00849366,0.00309944,0.0458956
24359,-0.000488281,-0.000244141,1,0.0525415,0.033617,0.015378
24369,-0.000244141,0.000244141,1.00024,-0.130564,0.0946522,0.106931
24379,0,0.000732422,1.00024,-0.0695288,0.0946522,0.137448
24389,0,0.000244141,1.00073,-0.0390112,-0.0579357,0.015378
24399,-0.000244141,0,1.00073,0.0220239,0.0641346,-0.0151396
24409,-0.000244141,-0.000244141,1.00073,0.0220239,-0.0884533,-0.0456572
24439,0.000488281,0,1.00146,0.0220239,0.0946522,-0.0151396
24449,0.000488281,0,1.00146,0.113577,0.00309944,-0.0456572
24459,0.000244141,-0.000244141,1.00098,0.0525415,0.12517,-0.106692
24469,0.000488281,0.000244141,1.00073,-0.00849366,0.0946522,0.0458956
24479,0.000488281,0.000244141,1.00024,-0.100046,0.0641346,-0.0456572
24489,0,0.000244141,1.00049,0.0525415,0.12517,0.015378
24509,0,0,1.00049,-0.0390112,0.033617,-0.167727
24529,0.000244141,-0.000488281,1.00049,0.0525415,0.00309944,-0.0456572
24539,0.000488281,-0.000976562,1.00073,0.0525415,0.033617,0.106931
24549,0.000488281,-0.000488281,1.00024,0.0830591,0.00309944,0.106931
24559,0.000244141,-0.000488281,1.00073,-0.100046,0.0946522,-0.0761747
24569,0.000244141,-0.000488281,1.00073,-0.0390112,0.00309944,0.015378
24579,0.000488281,-0.000488281,1.00073,0.0525415,-0.0579357,-0.106692
24589,0.000488281,-0.000732422,1,0.174612,-0.0579357,-0.106692
24599,0.000732422,-0.000732422,0.999756,-0.0695288,0.0946522,-0.0151396
24609,0.000732422,-0.000732422,0.999512,-0.130564,0.216722,0.229001
24619,0.000488281,-0.000488281,0.999512,-0.100046,0.155687,0.015378
24629,0.000244141,-0.000732422,0.999023,0.0830591,0.186205,-0.0151396
24639,0.000488281,-0.000732422,1,-0.0390112,-0.118971,0.0458956
24659,0,-0.000488281,1.00024,0.0220239,-0.0274181,-0.0151396
24669,-0.000488281,-0.000244141,1,0.0220239,0.00309944,0.015378
24679,-0.000488281,-0.000244141,1,-0.0695288,-0.0579357,0.0764132
24689,-0.000732422,0,1.00024,-0.0390112,0.155687,-0.13721
24699,-0.000732422,0,1.00073,-0.00849366,0.00309944,-0.106692
24709,0,0,1.00073,-0.0695288,0.0946522,0.0764132
24719,0,-0.000244141,1.00098,-0.0390112,0.033617,-0.0456572
24729,-0.000244141,-0.000244141,1.00073,0.0525415,0.0641346,0.015378
24739,-0.000732422,-0.000488281,1.00098,0.113577,0.033617,-0.167727
24749,-0.000488281,0,1.00049,-0.0695288,-0.0274181,0.0764132
24759,-0.000488281,0.000244141,1.00073,-0.191599,0.0641346,0.0458956
24769,-0.000244141,0.000244141,1.00122,0.0220239,-0.118971,-0.106692
24779,-0.000244141,-0.000244141,1.00122,-0.130564,0.033617,-0.13721
24789,0.000244141,-0.000244141,1.00122,0.0220239,0.033617,-0.0456572
24799,-0.000244141,0,1.00098,-0.100046,-0.0884533,0.0458956
24809,0,-0.000244141,1.00073,-0.00849366,0.033617,-0.198245
24819,0,0,1.00049,-0.00849366,0.0641346,0.0764132
24829,0.000244141,-0.000244141,0.999756,-0.100046,0.00309944,-0.106692
24839,0,-0.000488281,0.999512,-0.00849366,0.155687,-0.0761747
24849,-0.000244141,-0.000488281,0.999512,0.0525415,0.033617,-0.0151396
24859,0,-0.000488281,0.999512,-0.130564,0.0946522,-0.0151396
24869,0.000244141,-0.000732422,1,-0.130564,0.033617,0.106931
24879,0.000244141,-0.000732422,1.00049,0.113577,-0.0579357,0.015378
24889,0.000244141,-0.000732422,1.00049,0.144094,0.00309944,0.106931
24899,0,-0.000976562,1.00024,-0.0390112,0.033617,-0.0761747
24909,-0.000244141,-0.000488281,1,0.0525415,-0.0579357,-0.106692
24919,-0.000488281,-0.000488281,1.00049,0.0830591,-0.149488,-0.167727
24929,-0.000732422,-0.000488281,1.00024,0.205129,0.0946522,0.0764132
24939,-0.000488281,-0.000244141,0.999756,0.0525415,0.00309944,0.198483
24949,-0.000488281,0,1.00049,-0.130564,0.033617,-0.0151396
24959,0,0,1.00073,0.0220239,-0.180006,0.0458956
24969,-0.000488281,0.000244141,1.00049,-0.0695288,-0.0274181,0.015378
24979,-0.000244141,0,1.00049,0.0525415,0.033617,0.015378
24989,-0.000488281,0,1,-0.100046,0.155687,0.015378
24999,-0.000488281,0,0.999512,-0.00849366,-0.0579357,-0.106692
25009,-0.000244141,0,0.999512,-0.0695288,-0.0274181,0.015378
25019,-0.000244141,-0.000244141,0.999756,-0.00849366,0.0946522,0.137448
25029,-0.000244141,-0.000244141,1.00073,-0.222117,0.00309944,-0.0761747
25039,-0.000244141,0.000244141,1.00098,-0.00849366,-0.0884533,-0.0151396
25049,-0.000244141,-0.000244141,1.00073,0.0525415,-0.0274181,0.0458956
25059,-0.000488281,-0.000244141,1.00098,0.0830591,-0.0274181,-0.0151396
25079,-0.000488281,-0.000244141,1.00098,-0.0695288,0.00309944,-0.167727
25109,-0.000244141,0.000244141,1.00146,0.144094,0.033617,-0.0456572
25129,0,-0.000244141,1.00098,-0.00849366,0.00309944,0.167966
25149,-0.000488281,-0.000488281,1.00098,-0.0695288,-0.0274181,-0.106692
25159,-0.000732422,-0.000488281,1.00073,0.0830591,-0.0274181,-0.0151396
25179,-0.000732422,0,1.00049,-0.0390112,-0.0274181,0.015378
25219,-0.000244141,0,1.00171,-0.100046,0.186205,0.106931
25249,-0.000488281,-0.000976562,1.00171,-0.0390112,0.033617,-0.106692
25259,-0.000244141,-0.000976562,1.00171,0.0220239,0.00309944,0.0458956
25269,-0.000244141,-0.000732422,1.00146,-0.0390112,0.12517,-0.106692
25279,0,-0.000488281,1.00049,-0.0695288,0.0641346,-0.106692
25379,0,-0.000976562,1.00049,0.0220239,0.216722,-0.106692
25409,-0.000244141,-0.000732422,1.00073,0.0830591,-0.149488,-0.0761747
25459,-0.000488281,0,1.00146,0.174612,-0.0884533,-0.0456572
25509,-0.000244141,-0.000244141,1.00024,-0.00849366,0.216722,-0.106692
25559,-0.0012207,0,1,-0.00849366,-0.0884533,0.137448
25669,0.000244141,-0.000732422,1.00146,0.0525415,0.00309944,0.015378
25689,-0.000244141,-0.000976562,1.00195,0.144094,0.12517,-0.0151396
25699,0.000244141,-0.000732422,1.00171,-0.100046,0.033617,0.0764132
25749,-0.000244141,-0.000488281,1.0022,-0.00849366,0.033617,0.0458956
25799,-0.000244141,-0.000244141,1.00146,0.0220239,0.155687,-0.0151396
25819,-0.000732422,-0.000244141,1.00098,-0.0695288,0.186205,-0.0151396
25849,-0.000488281,-0.000244141,1.00024,-0.00849366,-0.0884533,0.0764132
25879,-0.000244141,-0.000488281,1.00024,-0.00849366,0.0946522,-0.13721
25889,-0.000488281,-0.000244141,1.00049,-0.100046,0.36931,0.106931
25899,-0.000488281,-0.000244141,0.999756,-0.0695288,0.0946522,0.0764132
25909,-0.000488281,-0.000488281,1,0.0830591,-0.118971,-0.0761747
25929,-0.000488281,-0.000244141,0.999756,-0.00849366,0.0946522,-0.0456572
25939,-0.000488281,-0.000244141,1,0.0220239,0.0641346,-0.0761747
25969,-0.000488281,-0.000488281,1,0.0220239,0.12517,0.015378
25979,-0.000976562,-0.000732422,1,-0.00849366,-0.0274181,0.015378
25989,-0.000732422,-0.000488281,0.999756,-0.0695288,0.24724,-0.0151396
25999,-0.000732422,-0.000488281,1,0.0525415,-0.0884533,0.0458956
26009,-0.000488281,-0.000732422,1,-0.130564,-0.0274181,-0.0151396
26019,-0.000488281,-0.000976562,0.999756,0.0830591,0.00309944,-0.0151396
26029,-0.000244141,-0.000976562,1,-0.0390112,-0.0579357,-0.0151396
26039,-0.000244141,-0.000976562,0.999756,-0.0695288,0.00309944,-0.0151396
26059,-0.000244141,-0.000976562,1,0.0525415,0.00309944,0.0458956
26069,-0.000244141,-0.000488281,1.00024,0.113577,-0.0579357,0.0764132
26079,0,-0.000488281,1.00024,-0.0390112,0.00309944,-0.106692
26089,0,-0.000488281,1.00073,0.0220239,0.0641346,0.0458956
26099,0,-0.000244141,1.00122,-0.0695288,0.00309944,-0.167727
26119,0.000244141,-0.000488281,1.00146,-0.0390112,-0.118971,-0.0151396
26129,0.000244141,-0.000488281,1.00073,0.0830591,-0.0579357,-0.0761747
26139,0,-0.000488281,1.00171,-0.100046,0.0946522,-0.13721
26149,-0.000244141,-0.000488281,1.00122,0.0220239,-0.0274181,-0.0456572
26159,-0.000244141,-0.000244141,1.00098,0.0525415,0.155687,-0.0761747
26169,0,-0.000244141,1.00073,-0.00849366,0.0641346,0.015378
26179,0,-0.000488281,1.00049,-0.00849366,0.0641346,0.015378
26189,0,-0.000244141,1.00073,0.144094,-0.0274181,0.015378
26199,0,-0.000244141,1,-0.130564,0.00309944,-0.167727
26209,0,-0.000244141,1.00024,0.0830591,-0.241041,-0.0761747
26229,0,-0.000488281,1.00049,0.0220239,0.0946522,0.106931
26239,-0.000244141,-0.000488281,1.00073,-0.0390112,-0.118971,-0.0456572
26249,-0.000244141,-0.000488281,1.00098,0.0220239,0.00309944,-0.0151396
26259,-0.000244141,-0.000732422,1.00098,-0.130564,0.0946522,-0.0761747
26269,-0.000488281,-0.000976562,1.00073,0.0220239,0.00309944,-0.0151396
26279,-0.000488281,-0.000732422,1.00049,-0.0695288,0.00309944,-0.0151396
26289,-0.000732422,-0.000732422,1.00024,0.113577,0.0946522,-0.0761747
26299,-0.000732422,-0.000732422,1.00024,0.144094,0.12517,-0.106692
26309,-0.000488281,-0.000976562,1,-0.00849366,0.12517,-0.0761747
26319,-0.000732422,-0.0012207,1.00024,0.0830591,-0.0884533,0.0764132
26329,-0.000976562,-0.000976562,1.00024,-0.00849366,0.0946522,0.0764132
26359,-0.000244141,-0.000732422,0.999512,0.113577,-0.0274181,-0.0456572
26369,-0.000244141,-0.000488281,0.999512,0.0525415,-0.0274181,0.0764132
26379,-0.000244141,-0.000488281,0.999756,-0.130564,-0.118971,0.015378
26389,-0.000488281,-0.000732422,0.999512,0.113577,0.00309944,-0.0456572
26399,-0.000244141,-0.000488281,0.999756,0.0830591,-0.0579357,-0.106692
26409,-0.000244141,-0.000488281,0.999756,-0.0695288,-0.0579357,-0.0456572
26419,-0.000244141,-0.000488281,0.999756,-0.00849366,-0.0579357,-0.0151396
26429,-0.000244141,0,0.999756,0.0830591,0.033617,-0.0151396
26439,0,0.000244141,1,-0.0695288,0.186205,-0.0151396
26459,0.000244141,-0.000244141,1,0.0525415,0.12517,-0.0151396
26469,0,0,1.00049,-0.00849366,-0.0274181,0.0458956
26479,0.000244141,0,1.00073,-0.00849366,-0.0274181,0.015378
26489,0.000488281,-0.000244141,1.00098,0.0525415,-0.0274181,-0.0761747
26499,0.000244141,-0.000244141,1.00049,0.144094,-0.118971,0.0764132
26509,0,-0.000244141,1.00073,-0.0695288,-0.0274181,-0.0456572
26519,0,-0.000488281,1.00073,0.0525415,0.00309944,0.015378
26529,-0.000244141,-0.000732422,1.00122,0.174612,0.12517,0.0458956
26549,-0.000488281,-0.000244141,1.00122,-0.0390112,-0.118971,-0.0456572
26559,0,-0.000244141,1.00049,-0.100046,0.00309944,0.0764132
26569,0.000488281,-0.000244141,1.00049,-0.0390112,0.0946522,0.015378
26579,0.000244141,-0.000488281,1.00024,-0.0390112,-0.0274181,0.015378
26589,0.000244141,-0.000488281,1.00073,-0.130564,0.00309944,-0.0151396
26609,-0.000244141,-0.000732422,0.999756,-0.0695288,-0.0274181,0.137448
26619,0,-0.000488281,1,-0.0695288,0.033617,-0.0456572
26629,0.000488281,-0.000244141,1.00024,-0.100046,0.0641346,0.106931
26639,0.000488281,-0.000244141,1.00049,0.0525415,-0.0579357,0.0764132
26649,0.000244141,-0.000488281,1.00024,-0.130564,0.0946522,-0.106692
26659,0.000244141,-0.000488281,1.00073,-0.100046,-0.0274181,0.0458956
26679,0.000488281,0,1.00146,-0.0390112,-0.0884533,-0.106692
26709,0.000244141,0,1.00146,-0.00849366,-0.0274181,0.0458956
26719,0.000244141,0.000244141,1.00146,-0.161082,0.0946522,0.015378
26749,0,0,1.00146,0.0830591,-0.0579357,-0.167727
26759,0,0,1.00122,-0.100046,0.033617,-0.13721
26769,-0.000244141,-0.000244141,1.00049,-0.00849366,-0.0884533,-0.0761747
26789,-0.000244141,0,1.00049,-0.00849366,0.0641346,0.015378
26799,-0.000244141,-0.000244141,0.999756,-0.161082,-0.0274181,0.0458956
26869,-0.000244141,-0.000244141,1.00073,0.0830591,-0.0274181,-0.0761747
26889,0,-0.000732422,1.00049,-0.100046,0.0641346,0.0458956
26959,-0.000488281,-0.000488281,1.00024,0.0830591,-0.0579357,-0.0456572
26979,-0.000244141,-0.000244141,1.00024,0.144094,-0.0579357,0.0458956
26989,-0.000244141,-0.000244141,1.00024,0.0525415,0.12517,-0.0151396
27019,-0.000244141,0,0.999756,0.0525415,0.033617,-0.0151396
27039,-0.000244141,-0.000244141,1.00049,0.0220239,0.00309944,0.015378
27049,-0.000488281,0,1.00049,-0.191599,0.0641346,0.0458956
27079,0,-0.000488281,1.00122,0.0830591,-0.0884533,0.015378
27089,0.000244141,-0.000732422,1.00098,-0.00849366,0.00309944,-0.0456572
27099,0,-0.000732422,1.00098,-0.0390112,-0.0579357,-0.106692
27149,0.000488281,-0.00146484,1.00049,-0.0390112,0.00309944,-0.0151396
27199,-0.000244141,-0.000976562,1.00098,-0.130564,-0.0274181,-0.0761747
27209,-0.000488281,-0.000976562,1.00098,-0.00849366,-0.0274181,-0.106692
27229,-0.000488281,-0.000732422,1.00146,-0.0390112,0.155687,-0.0151396
27279,0,-0.000244141,1.00098,-0.100046,0.033617,0.106931
